SubjectNumber,Trial,Third,Instr,LeftRight,ValL,ValR,ValDif,colorBlind,choice,RT
1,1,3,1,2,61,66,-5,0,1,888.3
1,2,3,1,1,63,60,3,0,1,1411.5
1,3,3,1,1,64,61,3,0,1,1663
1,4,3,1,2,65,66,-1,0,1,879.48
1,5,3,1,1,64,61,3,0,1,870.38
1,6,3,1,1,67,65,2,0,1,1750.3
1,7,3,1,2,60,65,-5,0,1,875.29
1,8,3,1,2,61,64,-3,0,1,779.67
1,9,3,1,1,65,64,1,0,1,1150.7
1,10,3,1,2,63,66,-3,0,1,1019.7
1,11,3,1,1,66,65,1,0,1,981.5
1,12,3,1,1,66,63,3,0,1,1048.7
1,13,3,1,2,62,61,1,0,0,1177.5
1,14,3,1,2,64,65,-1,0,1,1549
1,15,3,1,1,65,63,2,0,1,1369.7
1,16,2,0,2,37,39,-2,0,1,865.56
1,17,1,0,2,13,12,1,0,0,953.4
1,18,3,0,1,59,62,-3,0,0,1470.4
1,19,3,0,2,63,65,-2,0,1,941.93
1,20,3,0,1,67,64,3,0,1,787.33
1,21,1,0,2,15,17,-2,0,1,1486.6
1,22,1,0,2,16,14,2,0,0,1006.1
1,23,2,0,1,37,39,-2,0,0,1481.2
1,24,1,0,1,15,18,-3,0,0,1000.4
1,25,3,0,1,64,63,1,0,1,1051.5
1,26,2,0,2,35,39,-4,0,1,1523.8
1,27,1,0,1,11,13,-2,0,0,1009.9
1,28,3,0,1,66,62,4,0,1,1340.3
1,29,2,0,2,35,36,-1,0,1,1857.5
1,30,2,0,2,37,36,1,0,0,1554.5
1,31,1,1,2,16,13,3,0,0,868.57
1,32,1,1,2,17,18,-1,0,1,828.04
1,33,1,1,2,19,15,4,0,0,1317.4
1,34,1,1,2,18,15,3,0,0,1203.3
1,35,1,1,2,13,18,-5,0,1,1662.5
1,36,1,1,2,13,16,-3,0,1,870.24
1,37,1,1,2,11,14,-3,0,1,854.87
1,38,1,1,2,16,13,3,0,0,1423
1,39,1,1,1,19,17,2,0,1,1265.4
1,40,1,1,1,15,12,3,0,1,1601.1
1,41,1,1,1,15,12,3,0,1,748.12
1,42,1,1,1,13,15,-2,0,0,1432.3
1,43,1,1,2,12,17,-5,0,1,1401.8
1,44,1,1,2,15,11,4,0,0,1084.9
1,45,1,1,2,19,16,3,0,0,972
1,46,1,0,1,15,14,1,0,1,748.24
1,47,3,0,1,62,59,3,0,1,1111.9
1,48,1,0,2,14,15,-1,0,1,854.22
1,49,2,0,1,35,37,-2,0,0,1038.9
1,50,3,0,1,67,62,5,0,1,752.36
1,51,3,0,2,64,65,-1,0,1,845.18
1,52,2,0,2,37,38,-1,0,1,1037.9
1,53,3,0,2,60,59,1,0,0,1614.8
1,54,1,0,1,13,15,-2,0,0,952.99
1,55,3,0,2,59,64,-5,0,1,789.8
1,56,2,0,2,36,38,-2,0,1,857.25
1,57,1,0,1,11,16,-5,0,0,769.22
1,58,2,0,2,40,41,-1,0,1,1117.1
1,59,1,0,2,15,17,-2,0,1,874.94
1,60,2,0,2,39,42,-3,0,1,1059.3
1,61,2,1,1,39,36,3,0,1,1190.1
1,62,2,1,2,38,37,1,0,0,832.75
1,63,2,1,1,42,38,4,0,1,682.47
1,64,2,1,2,36,40,-4,0,1,841.34
1,65,2,1,2,37,39,-2,0,1,1939.2
1,66,2,1,1,40,37,3,0,1,672.43
1,67,2,1,2,36,41,-5,0,1,744.42
1,68,2,1,1,42,41,1,0,1,750.28
1,69,2,1,2,39,43,-4,0,1,666.66
1,70,2,1,1,43,39,4,0,1,562.94
1,71,2,1,1,41,39,2,0,1,1038.7
1,72,2,1,1,42,39,3,0,1,1047.9
1,73,2,1,1,40,37,3,0,1,1001.3
1,74,2,1,2,41,42,-1,0,1,683.69
1,75,2,1,1,40,38,2,0,1,546.8
1,76,2,0,1,42,38,4,0,1,582.48
1,77,3,0,2,62,63,-1,0,1,665.74
1,78,2,0,1,43,38,5,0,1,697.59
1,79,3,0,2,65,66,-1,0,1,1368.4
1,80,2,0,2,38,39,-1,0,1,1292.4
1,81,3,0,2,62,65,-3,0,1,883.95
1,82,1,0,1,13,15,-2,0,0,899.07
1,83,1,0,2,11,16,-5,0,1,777.77
1,84,3,0,1,61,63,-2,0,0,782.19
1,85,1,0,2,17,15,2,0,0,1361.3
1,86,1,0,2,19,16,3,0,0,1182.1
1,87,2,0,1,42,38,4,0,1,649.78
1,88,3,0,1,60,62,-2,0,0,842.15
1,89,2,0,2,40,37,3,0,0,1275.4
1,90,1,0,1,15,17,-2,0,0,972.11
1,91,1,1,2,14,13,1,0,0,811.77
1,92,1,1,1,12,14,-2,0,0,1293.9
1,93,1,1,2,14,19,-5,0,1,1119.8
1,94,1,1,1,18,15,3,0,1,1528.4
1,95,1,1,2,18,17,1,0,0,821.85
1,96,1,1,1,15,18,-3,0,0,1808.1
1,97,1,1,1,16,14,2,0,1,2122.6
1,98,1,1,2,15,16,-1,0,1,1104.8
1,99,1,1,2,17,15,2,0,0,1255.9
1,100,1,1,2,14,18,-4,0,1,1775.9
1,101,1,1,1,16,17,-1,0,0,1220.3
1,102,1,1,1,17,16,1,0,1,1150.8
1,103,1,1,1,15,13,2,0,1,1235.1
1,104,1,1,1,19,15,4,0,1,1540.3
1,105,1,1,2,15,19,-4,0,1,1233.8
1,106,1,0,2,13,15,-2,0,1,1080.5
1,107,2,0,1,41,39,2,0,1,1383.2
1,108,1,0,2,14,15,-1,0,1,955.07
1,109,2,0,1,39,38,1,0,1,2271
1,110,3,0,2,64,61,3,0,0,1135.4
1,112,2,0,2,40,42,-2,0,1,1132.1
1,113,2,0,1,43,40,3,0,1,745.09
1,114,3,0,1,59,63,-4,0,0,1637.9
1,115,3,0,2,59,60,-1,0,1,2111
1,116,3,0,2,61,62,-1,0,1,1621.4
1,117,1,0,2,17,18,-1,0,1,1647.3
1,118,1,0,1,15,12,3,0,1,1191.7
1,120,1,0,2,13,14,-1,0,1,1187.7
1,121,3,1,1,64,62,2,0,1,833.07
1,122,3,1,2,61,64,-3,0,1,649.79
1,123,3,1,2,66,63,3,0,0,659.13
1,124,3,1,2,59,62,-3,0,1,1235.4
1,125,3,1,2,63,67,-4,0,1,733.18
1,126,3,1,2,63,64,-1,0,1,1809.9
1,127,3,1,2,62,67,-5,0,1,932.16
1,128,3,1,1,66,63,3,0,1,857.9
1,129,3,1,2,60,64,-4,0,1,930.74
1,130,3,1,1,64,61,3,0,1,927.83
1,131,3,1,1,67,63,4,0,1,1077.1
1,132,3,1,2,63,60,3,0,0,1821.6
1,133,3,1,1,67,63,4,0,1,670.94
1,134,3,1,1,65,63,2,0,1,1599.8
1,135,3,1,2,66,64,2,0,0,1234
1,136,2,0,2,35,39,-4,0,1,1616.4
1,137,3,0,1,66,62,4,0,1,681.8
1,138,2,0,1,41,38,3,0,1,1088.6
1,139,3,0,2,64,60,4,0,0,959.92
1,140,1,0,1,17,12,5,0,1,1045.5
1,141,2,0,2,38,39,-1,0,1,1429.9
1,142,2,0,1,40,36,4,0,1,911.61
1,143,3,0,2,62,66,-4,0,1,797.06
1,144,1,0,2,11,16,-5,0,1,975.69
1,145,2,0,2,35,40,-5,0,1,1064.3
1,146,3,0,2,59,63,-4,0,1,1203.5
1,147,1,0,2,12,11,1,0,0,877.72
1,148,1,0,1,16,12,4,0,1,2037.8
1,149,1,0,1,18,14,4,0,1,902.62
1,150,3,0,2,61,65,-4,0,1,781.95
1,151,2,1,2,37,40,-3,0,1,722.31
1,152,2,1,1,43,41,2,0,1,608.79
1,153,2,1,1,43,40,3,0,1,1362.9
1,154,2,1,1,40,38,2,0,1,1151.5
1,155,2,1,1,41,39,2,0,1,587.77
1,156,2,1,2,38,42,-4,0,1,687.17
1,157,2,1,2,37,39,-2,0,1,806.75
1,158,2,1,2,39,42,-3,0,1,553.57
1,159,2,1,2,41,40,1,0,0,1077.6
1,160,2,1,2,39,43,-4,0,1,870.44
1,161,2,1,1,43,39,4,0,1,950.05
1,162,2,1,1,40,37,3,0,1,874.52
1,163,2,1,1,42,41,1,0,1,1186.7
1,164,2,1,2,39,40,-1,0,1,845.86
1,165,2,1,2,35,38,-3,0,1,1231.1
1,166,3,0,1,65,60,5,0,1,810.9
1,167,2,0,2,38,41,-3,0,1,757.06
1,168,2,0,2,39,41,-2,0,1,1121.7
1,169,2,0,2,39,41,-2,0,1,695.78
1,170,3,0,1,65,62,3,0,1,774.42
1,171,3,0,1,63,66,-3,0,0,554.31
1,172,1,0,1,19,15,4,0,1,1799.3
1,173,3,0,2,60,62,-2,0,1,1121.7
1,174,1,0,2,16,18,-2,0,1,896.09
1,175,2,0,1,35,38,-3,0,0,982.51
1,176,1,0,1,14,11,3,0,1,906.25
1,177,2,0,1,43,39,4,0,1,800.63
1,178,1,0,2,14,17,-3,0,1,1403.2
1,179,3,0,2,64,66,-2,0,1,1318
1,180,1,0,1,11,12,-1,0,0,660.28
1,181,3,1,2,62,66,-4,0,1,727.96
1,182,3,1,1,66,62,4,0,1,837.25
1,183,3,1,1,65,64,1,0,1,934.79
1,184,3,1,2,60,62,-2,0,1,1187.6
1,185,3,1,2,61,63,-2,0,1,807.49
1,186,3,1,2,63,67,-4,0,1,1074
1,187,3,1,1,64,65,-1,0,0,1098.2
1,188,3,1,2,66,65,1,0,0,1256.7
1,189,3,1,2,59,62,-3,0,1,2337.7
1,190,3,1,2,61,63,-2,0,1,2111.6
1,191,3,1,2,61,64,-3,0,1,941.51
1,192,3,1,1,67,64,3,0,1,2066.6
1,193,3,1,1,63,61,2,0,1,1770.6
1,194,3,1,1,63,59,4,0,1,1350.4
1,195,3,1,1,64,62,2,0,1,914.97
1,196,2,0,1,40,38,2,0,1,1408.2
1,197,1,0,2,11,14,-3,0,1,1154.3
1,198,3,0,2,64,62,2,0,0,2247
1,199,2,0,1,40,39,1,0,1,920.61
1,200,2,0,2,41,42,-1,0,1,1710.2
1,201,2,0,2,37,41,-4,0,1,1276.4
1,202,2,0,2,39,36,3,0,0,988.6
1,203,1,0,2,19,14,5,0,0,1496.6
1,204,1,0,2,16,13,3,0,0,846.93
1,205,1,0,2,16,19,-3,0,1,1503.7
1,206,3,0,2,61,60,1,0,0,1046.3
1,207,3,0,2,61,63,-2,0,1,1158.7
1,208,3,0,1,65,63,2,0,1,1180.2
1,209,3,0,2,59,64,-5,0,1,1039.3
1,210,1,0,2,16,17,-1,0,1,1760.7
1,211,1,1,2,13,16,-3,0,1,991.06
1,212,1,1,2,11,14,-3,0,1,1954.2
1,213,1,1,2,18,17,1,0,0,1926.8
1,215,1,1,2,13,15,-2,0,1,1504.3
1,216,1,1,2,16,17,-1,0,1,2247.1
1,219,1,1,1,16,13,3,0,1,1040.4
1,220,1,1,1,18,15,3,0,1,1514
1,224,1,1,2,12,16,-4,0,1,801.52
1,225,1,1,1,18,14,4,0,1,844.65
1,226,1,0,2,14,18,-4,0,1,812.59
1,227,2,0,2,37,39,-2,0,1,1046.8
1,228,3,0,2,62,63,-1,0,1,1855.4
1,229,3,0,2,59,61,-2,0,1,1048
1,231,3,0,2,59,64,-5,0,1,807.47
1,232,2,0,1,36,38,-2,0,0,1714.4
1,234,2,0,2,36,35,1,0,0,2070
1,235,1,0,1,17,14,3,0,1,1758.7
1,236,2,0,1,35,40,-5,0,0,1194.8
1,237,3,0,1,63,65,-2,0,0,1845.6
1,238,3,0,2,62,63,-1,0,1,750.7
1,239,1,0,2,11,15,-4,0,1,1115.4
1,240,2,0,1,41,36,5,0,1,841.77
1,241,2,1,1,40,41,-1,0,0,1270.5
1,242,2,1,1,39,35,4,0,1,1334.1
1,243,2,1,1,42,40,2,0,1,1435.2
1,244,2,1,2,38,43,-5,0,1,1484.4
1,245,2,1,2,37,40,-3,0,1,884.4
1,246,2,1,2,35,38,-3,0,1,1603.9
1,247,2,1,1,39,36,3,0,1,965.96
1,248,2,1,2,37,40,-3,0,1,1418.2
1,249,2,1,1,41,40,1,0,1,1676.3
1,250,2,1,1,42,39,3,0,1,2012.5
1,252,2,1,1,39,37,2,0,1,1306.7
1,253,2,1,2,40,41,-1,0,1,1345
1,254,2,1,1,42,39,3,0,1,1541.6
1,255,2,1,2,37,42,-5,0,1,763.51
1,256,1,0,2,14,15,-1,0,1,1049.9
1,257,2,0,1,39,41,-2,0,0,1778.5
1,258,2,0,2,38,39,-1,0,1,797.67
1,259,3,0,1,64,67,-3,0,0,1016.4
1,261,3,0,2,63,65,-2,0,1,1758.4
1,262,3,0,2,61,63,-2,0,1,842.77
1,263,1,0,1,18,14,4,0,1,1132
1,264,3,0,2,63,62,1,0,0,1097.5
1,265,2,0,2,35,40,-5,0,1,1456.4
1,266,1,0,2,13,17,-4,0,1,1072.8
1,267,2,0,2,38,42,-4,0,1,825.24
1,268,3,0,1,67,63,4,0,1,930.43
1,269,2,0,2,40,43,-3,0,1,832.11
1,270,1,0,2,11,15,-4,0,1,1193.7
3,1,3,1,2,61,66,-5,0,1,2110.9
3,2,3,1,1,65,66,-1,0,0,3513.4
3,3,3,1,2,60,65,-5,0,1,2768.7
3,4,3,1,1,63,61,2,0,1,1692.6
3,5,3,1,1,64,61,3,0,1,2500
3,6,3,1,2,61,64,-3,0,1,2698.9
3,7,3,1,1,65,64,1,0,1,3241.5
3,8,3,1,2,63,67,-4,0,1,1851
3,9,3,1,2,59,62,-3,0,1,2987.9
3,10,3,1,1,63,59,4,0,1,2070.8
3,11,3,1,2,64,65,-1,0,1,2999.1
3,12,3,1,1,62,61,1,0,1,3361.8
3,13,3,1,2,60,62,-2,0,1,3365.8
3,14,3,1,1,66,63,3,0,1,3402.1
3,15,3,1,1,64,61,3,0,1,1957
3,16,2,0,1,40,39,1,0,1,3743.3
3,17,1,0,2,15,17,-2,0,1,2949
3,18,1,0,1,16,13,3,0,1,3681.1
3,19,1,0,2,16,14,2,0,0,3160.3
3,20,3,0,2,62,65,-3,0,1,2605.8
3,21,1,0,1,17,14,3,0,1,2999.9
3,22,2,0,2,36,35,1,0,0,2810.9
3,23,1,0,2,14,15,-1,0,1,3340.9
3,24,2,0,2,38,41,-3,0,1,3562.3
3,25,3,0,2,61,63,-2,0,1,3342.3
3,26,3,0,1,65,62,3,0,1,2771.9
3,27,3,0,2,59,64,-5,0,1,1719.9
3,28,2,0,2,35,36,-1,0,1,4141.8
3,29,3,0,1,66,62,4,0,1,3323.5
3,30,2,0,1,39,36,3,0,1,3265.8
3,31,2,1,2,37,40,-3,0,1,2995.7
3,32,2,1,2,41,39,2,0,0,2790.3
3,33,2,1,1,39,37,2,0,1,2705.3
3,34,2,1,2,38,43,-5,0,1,1496.8
3,35,2,1,2,42,41,1,0,0,2831.7
3,36,2,1,1,43,40,3,0,1,2400.5
3,37,2,1,1,41,40,1,0,1,2699.2
3,38,2,1,1,42,39,3,0,1,1057.6
3,39,2,1,1,43,39,4,0,1,2003.2
3,40,2,1,2,37,39,-2,0,1,1669.4
3,41,2,1,1,40,41,-1,0,0,2037.2
3,42,2,1,2,37,40,-3,0,1,2262.5
3,43,2,1,2,36,40,-4,0,1,1494.8
3,44,2,1,2,40,41,-1,0,1,2013.6
3,45,2,1,1,42,39,3,0,1,1368
3,46,2,0,1,39,41,-2,0,0,1150.6
3,47,2,0,2,35,39,-4,0,1,1707
3,48,2,0,2,40,38,2,0,0,1530
3,49,1,0,1,15,12,3,0,1,2391.2
3,50,1,0,2,11,14,-3,0,1,1730.9
3,51,1,0,2,11,15,-4,0,1,2280.1
3,52,2,0,2,40,41,-1,0,1,2135.7
3,53,1,0,1,17,12,5,0,1,3284.5
3,54,3,0,2,62,63,-1,0,1,2076.7
3,55,2,0,1,43,38,5,0,1,1628.8
3,56,3,0,1,63,60,3,0,1,2341.6
3,57,3,0,1,67,64,3,0,1,1450.7
3,58,3,0,2,63,66,-3,0,1,1724.2
3,59,3,0,1,64,60,4,0,1,945.58
3,60,1,0,2,14,17,-3,0,1,1909.7
3,61,1,1,2,12,16,-4,0,1,1096.4
3,62,1,1,1,16,13,3,0,1,2718.3
3,63,1,1,2,15,19,-4,0,1,1868.7
3,64,1,1,1,17,15,2,0,1,1844.6
3,65,1,1,2,12,17,-5,0,1,893.37
3,66,1,1,2,14,19,-5,0,1,1852.5
3,67,1,1,2,14,18,-4,0,1,1774.2
3,68,1,1,1,18,17,1,0,1,1769.9
3,69,1,1,1,15,11,4,0,1,1349.7
3,70,1,1,1,18,15,3,0,1,2178.6
3,71,1,1,2,11,14,-3,0,1,1438.1
3,72,1,1,1,19,16,3,0,1,2063.1
3,73,1,1,2,15,18,-3,0,1,2527.3
3,74,1,1,2,16,17,-1,0,1,2981.2
3,75,1,1,2,11,14,-3,0,1,2472.9
3,76,2,0,2,37,39,-2,0,1,3370.6
3,77,1,0,2,14,18,-4,0,1,1838.1
3,78,3,0,1,64,63,1,0,1,2863.7
3,79,2,0,1,41,39,2,0,1,1823.3
3,80,1,0,1,14,15,-1,0,0,2554
3,82,1,0,2,11,16,-5,0,1,1909
3,83,3,0,1,67,62,5,0,1,2275.2
3,84,3,0,1,66,62,4,0,1,1691.9
3,85,1,0,1,13,15,-2,0,0,3875
3,86,1,0,2,12,11,1,0,0,2306.7
3,87,3,0,2,61,63,-2,0,1,1657.9
3,88,2,0,2,36,38,-2,0,1,2570.8
3,89,2,0,2,35,40,-5,0,1,1278.3
3,90,2,0,2,39,38,1,0,0,2582.1
3,91,2,1,1,43,39,4,0,1,907.15
3,92,2,1,2,41,42,-1,0,1,2969.5
3,93,2,1,1,40,37,3,0,1,1277.5
3,94,2,1,2,39,36,3,0,0,1533.2
3,95,2,1,1,42,40,2,0,1,2179
3,96,2,1,1,40,37,3,0,1,2142.7
3,97,2,1,2,38,37,1,0,0,2515.6
3,98,2,1,1,41,39,2,0,1,2961.6
3,99,2,1,1,40,38,2,0,1,4053.3
3,100,2,1,2,36,38,-2,0,1,990.29
3,101,2,1,1,39,36,3,0,1,1986
3,102,2,1,1,40,38,2,0,1,2501.1
3,103,2,1,2,37,40,-3,0,1,979.81
3,104,2,1,1,39,35,4,0,1,919.28
3,105,2,1,2,41,40,1,0,0,2380.9
3,106,2,0,2,39,41,-2,0,1,1495.3
3,107,3,0,2,63,65,-2,0,1,1885.3
3,108,1,0,1,19,15,4,0,1,2453
3,109,3,0,1,62,59,3,0,1,3285.2
3,110,3,0,2,63,65,-2,0,1,1412.9
3,111,3,0,2,59,61,-2,0,1,1438.9
3,112,1,0,2,11,13,-2,0,1,3664.1
3,113,2,0,1,43,39,4,0,1,1968.8
3,114,2,0,1,42,38,4,0,1,2244.5
3,115,1,0,1,16,12,4,0,1,2054.3
3,116,2,0,2,38,42,-4,0,1,2455.1
3,117,2,0,2,37,39,-2,0,1,1383.5
3,118,1,0,2,15,17,-2,0,1,2355.1
3,119,3,0,1,64,65,-1,0,0,1639.6
3,120,1,0,1,14,15,-1,0,0,2720.8
3,121,3,1,2,64,65,-1,0,1,962.18
3,122,3,1,1,66,62,4,0,1,1221.4
3,123,3,1,1,66,63,3,0,1,1007.8
3,124,3,1,2,59,62,-3,0,1,2226.2
3,125,3,1,2,63,66,-3,0,1,1516.3
3,126,3,1,1,64,61,3,0,1,1498.4
3,127,3,1,1,66,64,2,0,1,2425.9
3,128,3,1,1,65,64,1,0,1,3355.4
3,129,3,1,1,63,60,3,0,1,2655.8
3,130,3,1,2,61,63,-2,0,1,888.34
3,131,3,1,1,63,60,3,0,1,1952
3,132,3,1,2,60,64,-4,0,1,908.88
3,133,3,1,2,65,63,2,0,0,1756
3,134,3,1,1,66,65,1,0,1,1144.1
3,135,3,1,1,66,63,3,0,1,1229.4
3,136,2,0,2,37,41,-4,0,1,1469.9
3,137,3,0,1,65,63,2,0,1,1973.9
3,138,2,0,2,35,39,-4,0,1,1481.5
3,139,3,0,2,63,65,-2,0,1,2536.7
3,140,1,0,2,15,14,1,0,0,2638.7
3,141,1,0,2,11,16,-5,0,1,3119.9
3,142,1,0,1,18,14,4,0,1,1750
3,143,2,0,2,42,38,4,0,0,2435.1
3,144,1,0,2,15,18,-3,0,1,2364.4
3,145,3,0,1,64,62,2,0,1,2432.5
3,146,2,0,2,36,38,-2,0,1,1610
3,147,3,0,2,59,63,-4,0,1,2540.3
3,148,3,0,2,64,66,-2,0,1,1937.6
3,149,2,0,2,38,39,-1,0,1,3911.2
3,150,1,0,1,18,14,4,0,1,3629.4
3,151,3,1,2,61,64,-3,0,1,2447.6
3,152,3,1,1,65,63,2,0,1,2167.9
3,153,3,1,2,62,67,-5,0,1,1460.1
3,154,3,1,1,67,65,2,0,1,988.4
3,155,3,1,1,67,64,3,0,1,2256.3
3,156,3,1,1,66,65,1,0,1,1320.6
3,157,3,1,1,67,63,4,0,1,959.1
3,158,3,1,1,67,63,4,0,1,1531.7
3,159,3,1,1,64,62,2,0,1,2433.3
3,160,3,1,2,61,64,-3,0,1,1835.2
3,161,3,1,2,61,63,-2,0,1,1844.1
3,162,3,1,2,63,67,-4,0,1,1116.2
3,163,3,1,2,62,66,-4,0,1,1291.3
3,164,3,1,1,64,62,2,0,1,3113.2
3,165,3,1,2,63,64,-1,0,1,2967.7
3,166,2,0,2,35,38,-3,0,1,1457.9
3,167,1,0,1,14,11,3,0,1,2058.5
3,168,1,0,1,19,16,3,0,1,2234.8
3,169,2,0,1,37,38,-1,0,0,2220.4
3,170,3,0,2,61,63,-2,0,1,2230.2
3,171,2,0,1,40,36,4,0,1,1616
3,172,3,0,1,64,61,3,0,1,2313.4
3,173,1,0,2,16,19,-3,0,1,1719.6
3,174,3,0,2,61,60,1,0,0,2510.1
3,175,2,0,1,41,38,3,0,1,4076.5
3,176,3,0,2,64,67,-3,0,1,1181.2
3,177,3,0,2,59,64,-5,0,1,1511.8
3,178,1,0,1,16,17,-1,0,0,3406.1
3,179,2,0,2,37,39,-2,0,1,3160.7
3,180,1,0,2,13,12,1,0,0,2253.6
3,181,2,1,2,42,39,3,0,0,996.53
3,182,2,1,2,35,38,-3,0,1,1655.1
3,183,2,1,2,37,42,-5,0,1,1303.3
3,184,2,1,2,36,41,-5,0,1,1190.3
3,185,2,1,2,39,40,-1,0,1,2089.8
3,186,2,1,2,38,42,-4,0,1,969.68
3,187,2,1,2,39,43,-4,0,1,1052.9
3,188,2,1,1,35,38,-3,0,0,2926.2
3,189,2,1,2,39,42,-3,0,1,1116.5
3,190,2,1,2,39,43,-4,0,1,914.46
3,191,2,1,1,42,41,1,0,1,1680.2
3,192,2,1,1,37,39,-2,0,0,2143.3
3,193,2,1,1,43,41,2,0,1,724.32
3,194,2,1,1,42,38,4,0,1,1394.9
3,195,2,1,1,40,37,3,0,1,1565.9
3,196,2,0,1,43,40,3,0,1,1055.7
3,197,2,0,2,39,41,-2,0,1,1703.8
3,198,1,0,2,12,14,-2,0,1,2894.5
3,199,3,0,2,62,66,-4,0,1,1869.7
3,200,1,0,1,13,14,-1,0,0,2590.1
3,201,2,0,2,35,37,-2,0,1,1825.6
3,202,2,0,1,40,37,3,0,1,2419.1
3,203,2,0,2,38,35,3,0,0,3925.3
3,204,1,0,2,13,15,-2,0,1,1339.6
3,205,3,0,2,59,60,-1,0,1,2392.9
3,206,3,0,2,59,62,-3,0,1,2251.9
3,207,1,0,1,13,15,-2,0,0,2172.5
3,209,3,0,2,65,60,5,0,0,2783.1
3,210,1,0,2,16,18,-2,0,1,1818.6
3,211,1,1,1,15,12,3,0,1,1103.5
3,212,1,1,1,16,14,2,0,1,1509.8
3,213,1,1,1,13,16,-3,0,0,2028.7
3,214,1,1,1,15,13,2,0,1,1493.9
3,215,1,1,1,19,15,4,0,1,981.39
3,216,1,1,1,19,15,4,0,1,888.72
3,217,1,1,1,16,13,3,0,1,1688.6
3,218,1,1,2,13,15,-2,0,1,2735.2
3,219,1,1,1,17,15,2,0,1,1405.7
3,220,1,1,2,16,14,2,0,0,2023.6
3,221,1,1,1,19,17,2,0,1,1121.8
3,222,1,1,2,13,16,-3,0,1,1759.9
3,223,1,1,1,18,16,2,0,1,1963.7
3,224,1,1,2,13,16,-3,0,1,2367.7
3,225,1,1,1,17,16,1,0,1,843.64
3,226,2,0,1,41,36,5,0,1,1262.4
3,227,1,0,2,13,17,-4,0,1,1550.2
3,228,3,0,2,59,64,-5,0,1,2306.4
3,229,3,0,2,61,62,-1,0,1,2129.4
3,230,2,0,2,35,40,-5,0,1,1247.2
3,231,3,0,2,59,63,-4,0,1,1879.5
3,232,1,0,1,17,15,2,0,1,1735.1
3,233,1,0,2,11,16,-5,0,1,1452
3,234,1,0,2,15,17,-2,0,1,1693.4
3,235,3,0,2,61,65,-4,0,1,1420.8
3,236,2,0,2,39,42,-3,0,1,982.76
3,237,3,0,1,62,63,-1,0,0,1497.8
3,238,1,0,2,12,14,-2,0,1,1232.5
3,239,2,0,2,38,39,-1,0,1,2209.9
3,240,2,0,2,41,42,-1,0,1,908.41
3,241,1,1,1,12,14,-2,0,0,2171.7
3,242,1,1,2,13,18,-5,0,1,975.07
3,243,1,1,2,13,15,-2,0,1,1251.3
3,244,1,1,2,16,17,-1,0,1,971.99
3,245,1,1,2,15,19,-4,0,1,903.95
3,246,1,1,1,18,15,3,0,1,2054.7
3,247,1,1,2,15,16,-1,0,1,2559.6
3,248,1,1,1,17,16,1,0,1,1924.3
3,249,1,1,1,14,13,1,0,1,1602.5
3,250,1,1,1,16,13,3,0,1,1205.1
3,251,1,1,1,18,14,4,0,1,1112.3
3,252,1,1,2,18,17,1,0,0,1669.8
3,253,1,1,1,18,15,3,0,1,1493.9
3,254,1,1,2,17,18,-1,0,1,1069.2
3,255,1,1,1,15,12,3,0,1,1405.6
3,256,2,0,1,38,39,-1,0,0,1248.1
3,257,2,0,2,40,43,-3,0,1,856.79
3,258,1,0,1,19,14,5,0,1,1537.6
3,259,1,0,2,11,12,-1,0,1,3310.4
3,260,3,0,2,60,62,-2,0,1,2549.9
3,261,3,0,2,60,59,1,0,0,3266.3
3,262,3,0,2,65,66,-1,0,1,1250.6
3,263,2,0,2,37,36,1,0,0,1179.1
3,264,1,0,1,16,15,1,0,1,2606.4
3,265,1,0,2,11,15,-4,0,1,1553.1
3,266,3,0,1,67,63,4,0,1,894.46
3,267,1,0,2,17,18,-1,0,1,1028.8
3,268,2,0,2,35,40,-5,0,1,1293.7
3,269,2,0,2,40,42,-2,0,1,1061
3,270,3,0,2,63,62,1,0,0,958.57
5,1,2,1,1,39,37,2,0,1,1342.8
5,2,2,1,2,39,43,-4,0,1,673.3
5,3,2,1,1,39,35,4,0,1,986.12
5,4,2,1,1,41,39,2,0,1,1829.6
5,6,2,1,1,40,37,3,0,1,1943.3
5,8,2,1,1,42,38,4,0,1,833.38
5,9,2,1,2,37,42,-5,0,1,1059
5,10,2,1,1,42,39,3,0,1,875.47
5,11,2,1,1,43,40,3,0,1,747.73
5,14,2,1,2,36,40,-4,0,1,1164.3
5,15,2,1,1,40,37,3,0,1,704.27
5,16,1,0,1,14,15,-1,0,0,751.83
5,17,1,0,2,15,17,-2,0,1,995.68
5,18,1,0,1,15,17,-2,0,0,1174.3
5,19,3,0,1,66,62,4,0,1,986.81
5,20,3,0,2,63,65,-2,0,1,1573.8
5,21,2,0,2,38,39,-1,0,1,1162.2
5,22,2,0,2,39,41,-2,0,1,933.98
5,23,3,0,2,64,67,-3,0,1,1179.5
5,24,2,0,1,43,39,4,0,1,838.54
5,25,2,0,2,40,42,-2,0,1,856.33
5,30,1,0,1,16,12,4,0,1,1055.1
5,31,1,1,2,16,17,-1,0,1,1750.4
5,33,1,1,1,15,19,-4,0,0,1158.6
5,34,1,1,1,12,16,-4,0,0,1179.2
5,35,1,1,2,14,13,1,0,0,1718.5
5,36,1,1,1,17,18,-1,0,0,972.55
5,37,1,1,1,18,14,4,0,1,832.6
5,38,1,1,2,15,18,-3,0,1,586.22
5,39,1,1,1,18,15,3,0,1,1205.6
5,40,1,1,2,12,17,-5,0,1,560.04
5,41,1,1,1,16,14,2,0,1,884.66
5,42,1,1,1,15,12,3,0,1,1164.4
5,43,1,1,2,13,16,-3,0,1,1176.4
5,44,1,1,1,19,17,2,0,1,556.69
5,45,1,1,2,14,19,-5,0,1,897.01
5,46,1,0,2,11,12,-1,0,1,1497.9
5,47,3,0,2,61,63,-2,0,1,1136.3
5,48,1,0,2,11,16,-5,0,1,933.61
5,49,2,0,2,36,38,-2,0,1,1178.9
5,50,1,0,1,13,14,-1,0,0,1062.7
5,51,2,0,1,42,38,4,0,1,854.28
5,52,3,0,1,63,60,3,0,1,1631
5,53,1,0,2,11,16,-5,0,1,896.55
5,54,2,0,2,38,41,-3,0,1,959.1
5,55,3,0,2,62,63,-1,0,1,819.6
5,56,2,0,1,43,38,5,0,1,950.38
5,57,3,0,2,60,62,-2,0,1,1186.8
5,58,2,0,2,35,37,-2,0,1,934.1
5,59,1,0,2,16,13,3,0,0,1467.5
5,60,3,0,2,64,66,-2,0,1,1251.3
5,61,1,1,2,13,16,-3,0,1,1140.1
5,62,1,1,2,13,15,-2,0,1,561
5,63,1,1,2,13,18,-5,0,1,604.77
5,64,1,1,2,11,14,-3,0,1,1071.8
5,65,1,1,2,14,18,-4,0,1,552.16
5,66,1,1,1,18,16,2,0,1,676.23
5,67,1,1,1,17,16,1,0,1,756.85
5,68,1,1,2,13,16,-3,0,1,1161.3
5,69,1,1,1,19,16,3,0,1,733.29
5,70,1,1,1,15,12,3,0,1,1626.6
5,71,1,1,1,16,13,3,0,1,660.72
5,72,1,1,2,16,14,2,0,0,557.16
5,74,1,1,1,18,15,3,0,1,945.84
5,75,1,1,1,18,17,1,0,1,1950.3
5,76,1,0,1,15,17,-2,0,0,989.94
5,77,2,0,2,40,41,-1,0,1,1328.5
5,78,1,0,2,13,15,-2,0,1,1814.4
5,79,1,0,1,19,15,4,0,1,760.29
5,80,2,0,2,37,39,-2,0,1,853.22
5,81,3,0,2,59,64,-5,0,1,949.81
5,82,3,0,2,64,65,-1,0,1,986.63
5,83,3,0,2,63,65,-2,0,1,678.22
5,84,2,0,2,35,36,-1,0,1,1293.3
5,85,1,0,2,11,16,-5,0,1,892.95
5,86,2,0,1,36,35,1,0,1,851.99
5,87,1,0,2,16,17,-1,0,1,1469.4
5,88,3,0,2,61,62,-1,0,1,1284.9
5,89,3,0,2,61,63,-2,0,1,1428.3
5,90,2,0,2,39,41,-2,0,1,1885.2
5,91,1,1,1,19,15,4,0,1,1105.4
5,92,1,1,2,13,15,-2,0,1,1231.4
5,93,1,1,2,15,19,-4,0,1,561.2
5,94,1,1,1,18,17,1,0,1,1141.4
5,95,1,1,1,18,15,3,0,1,786.66
5,97,1,1,1,15,13,2,0,1,805.12
5,99,1,1,1,16,13,3,0,1,908.68
5,100,1,1,2,12,14,-2,0,1,882.91
5,101,1,1,1,16,13,3,0,1,1219.5
5,103,1,1,1,15,11,4,0,1,802.15
5,104,1,1,1,19,15,4,0,1,892.79
5,106,1,0,2,11,15,-4,0,1,1307.6
5,107,1,0,1,17,12,5,0,1,777.49
5,108,2,0,1,39,36,3,0,1,910.14
5,109,1,0,1,19,14,5,0,1,1188.1
5,110,2,0,1,40,39,1,0,1,1255.6
5,112,3,0,2,61,63,-2,0,1,1246.1
5,113,3,0,1,63,65,-2,0,0,1335
5,114,2,0,2,35,40,-5,0,1,892.7
5,115,2,0,1,38,35,3,0,1,1643.9
5,116,3,0,1,67,64,3,0,1,1677.1
5,117,1,0,1,17,14,3,0,1,1268.5
5,118,3,0,1,67,63,4,0,1,812.68
5,119,3,0,2,63,62,1,0,0,670.71
5,120,2,0,1,41,39,2,0,1,1030.5
5,121,3,1,1,63,59,4,0,1,977.01
5,122,3,1,2,66,65,1,0,0,580.16
5,123,3,1,1,64,65,-1,0,0,1399.3
5,124,3,1,2,65,64,1,0,0,978.29
5,125,3,1,2,66,64,2,0,0,1165.5
5,126,3,1,1,62,61,1,0,1,898.18
5,127,3,1,2,62,66,-4,0,1,520.18
5,128,3,1,1,59,62,-3,0,0,701.87
5,129,3,1,2,62,67,-5,0,1,589.37
5,130,3,1,1,61,63,-2,0,0,952.22
5,131,3,1,1,64,62,2,0,1,621.22
5,132,3,1,2,63,67,-4,0,1,1559.1
5,134,3,1,2,65,66,-1,0,1,1950.6
5,135,3,1,2,64,62,2,0,0,859.16
5,136,2,0,1,40,36,4,0,1,918.56
5,137,3,0,2,62,66,-4,0,1,1268.1
5,138,1,0,1,13,12,1,0,1,1083.9
5,139,3,0,2,63,66,-3,0,1,1003.1
5,140,3,0,1,65,62,3,0,1,941.86
5,141,3,0,2,59,61,-2,0,1,1075.6
5,142,2,0,1,42,38,4,0,1,1027.1
5,143,3,0,2,59,64,-5,0,1,781.32
5,144,1,0,2,16,18,-2,0,1,1153.3
5,145,1,0,2,14,15,-1,0,1,901.4
5,147,1,0,2,15,12,3,0,0,892.68
5,148,1,0,1,16,14,2,0,1,1107.3
5,149,2,0,1,43,40,3,0,1,986.64
5,150,2,0,2,35,38,-3,0,1,1078.3
5,151,2,1,1,43,41,2,0,1,1101.1
5,152,2,1,1,41,42,-1,0,0,931.08
5,153,2,1,1,40,37,3,0,1,816.48
5,154,2,1,1,41,40,1,0,1,1003.2
5,155,2,1,2,38,43,-5,0,1,1069.8
5,156,2,1,1,36,38,-2,0,0,781.37
5,157,2,1,2,38,37,1,0,0,1584.8
5,158,2,1,2,36,41,-5,0,1,963.89
5,159,2,1,2,42,41,1,0,0,1288.2
5,160,2,1,1,42,40,2,0,1,839.68
5,161,2,1,2,39,40,-1,0,1,1816.6
5,163,2,1,1,43,39,4,0,1,913.06
5,164,2,1,2,39,42,-3,0,1,831.08
5,165,2,1,2,37,39,-2,0,1,1328.6
5,166,3,0,1,64,63,1,0,1,1335.4
5,168,2,0,2,35,40,-5,0,1,1149.6
5,169,2,0,1,40,38,2,0,1,1226
5,170,3,0,2,61,65,-4,0,1,1635.8
5,171,2,0,2,37,38,-1,0,1,637.45
5,172,3,0,2,59,63,-4,0,1,726.81
5,173,2,0,2,37,39,-2,0,1,732.89
5,174,3,0,2,59,62,-3,0,1,1162.3
5,175,1,0,1,11,14,-3,0,0,1358.3
5,176,3,0,2,62,63,-1,0,1,1810.8
5,178,1,0,2,13,15,-2,0,1,1581.2
5,179,2,0,2,38,39,-1,0,1,1176.7
5,180,1,0,2,11,15,-4,0,1,1252.6
5,181,3,1,2,60,64,-4,0,1,1403.9
5,182,3,1,1,63,60,3,0,1,773.92
5,183,3,1,1,66,62,4,0,1,633.7
5,184,3,1,1,63,64,-1,0,0,738.91
5,185,3,1,1,63,61,2,0,1,752.51
5,186,3,1,1,64,61,3,0,1,1212.9
5,187,3,1,1,66,63,3,0,1,735.27
5,189,3,1,1,64,61,3,0,1,873.63
5,190,3,1,2,64,65,-1,0,1,1049.5
5,191,3,1,1,66,63,3,0,1,1377.9
5,192,3,1,2,60,62,-2,0,1,949.67
5,193,3,1,1,66,65,1,0,1,1002.1
5,194,3,1,1,67,63,4,0,1,685.05
5,196,1,0,2,14,18,-4,0,1,691.38
5,197,3,0,1,65,63,2,0,1,906.96
5,198,1,0,1,15,14,1,0,1,1521.5
5,199,3,0,2,59,64,-5,0,1,806.85
5,200,1,0,2,13,15,-2,0,1,1601.8
5,201,3,0,2,62,65,-3,0,1,892.7
5,202,1,0,1,14,11,3,0,1,1531.7
5,203,2,0,1,41,38,3,0,1,1761.3
5,204,2,0,2,39,41,-2,0,1,710.62
5,205,3,0,1,64,60,4,0,1,860.87
5,206,2,0,2,37,39,-2,0,1,1444.6
5,207,2,0,2,35,39,-4,0,1,1742
5,208,2,0,2,37,41,-4,0,1,1307.4
5,210,1,0,1,16,15,1,0,1,1479.4
5,211,3,1,2,61,66,-5,0,1,840.53
5,212,3,1,1,65,63,2,0,1,1186.1
5,213,3,1,1,67,65,2,0,1,764.8
5,214,3,1,2,63,66,-3,0,1,513.61
5,215,3,1,1,64,61,3,0,1,767.7
5,216,3,1,2,63,67,-4,0,1,867.39
5,217,3,1,1,67,63,4,0,1,515.31
5,218,3,1,2,61,64,-3,0,1,1745.3
5,219,3,1,2,59,62,-3,0,1,1326.2
5,220,3,1,2,61,64,-3,0,1,731.72
5,221,3,1,2,60,65,-5,0,1,785.57
5,222,3,1,1,67,64,3,0,1,733.01
5,223,3,1,1,66,63,3,0,1,730.37
5,224,3,1,2,63,60,3,0,0,1127.3
5,225,3,1,2,61,64,-3,0,1,621.44
5,226,3,0,2,59,60,-1,0,1,975.61
5,227,3,0,2,60,62,-2,0,1,1035
5,229,3,0,1,61,60,1,0,1,838.95
5,230,1,0,2,17,18,-1,0,1,824.2
5,231,1,0,2,12,14,-2,0,1,1625.7
5,233,1,0,2,13,17,-4,0,1,1127.6
5,234,2,0,1,41,36,5,0,1,813.25
5,235,2,0,2,39,42,-3,0,1,759.63
5,236,2,0,2,35,39,-4,0,1,884.33
5,237,3,0,2,65,66,-1,0,1,1019.2
5,238,1,0,1,19,16,3,0,1,813.33
5,239,2,0,2,39,38,1,0,0,855.36
5,240,1,0,1,18,14,4,0,1,903.77
5,241,2,1,2,39,36,3,0,0,1062.7
5,242,2,1,2,40,41,-1,0,1,1854.1
5,243,2,1,1,39,36,3,0,1,895.03
5,244,2,1,1,42,39,3,0,1,1501.7
5,245,2,1,1,41,39,2,0,1,1228.4
5,246,2,1,2,35,38,-3,0,1,1325.6
5,247,2,1,2,39,43,-4,0,1,900.13
5,248,2,1,1,43,39,4,0,1,642.34
5,249,2,1,2,37,40,-3,0,1,1059.7
5,250,2,1,1,40,38,2,0,1,948.59
5,251,2,1,2,37,39,-2,0,1,1457.5
5,252,2,1,2,38,42,-4,0,1,577.66
5,253,2,1,2,37,40,-3,0,1,1037.9
5,254,2,1,1,42,39,3,0,1,879.46
5,256,2,0,1,37,36,1,0,1,1597.3
5,257,2,0,2,35,40,-5,0,1,783.86
5,258,1,0,2,17,15,2,0,0,834.92
5,259,2,0,2,38,42,-4,0,1,828.32
5,260,2,0,2,41,42,-1,0,1,805.64
5,261,3,0,2,59,63,-4,0,1,1064.4
5,262,3,0,1,64,61,3,0,1,888.08
5,263,1,0,2,15,18,-3,0,1,1248
5,264,3,0,1,65,60,5,0,1,1992.3
5,265,3,0,1,67,62,5,0,1,620.01
5,266,1,0,1,12,11,1,0,1,1997.8
5,267,1,0,2,14,17,-3,0,1,1192.4
5,268,2,0,2,40,43,-3,0,1,827.86
5,269,1,0,2,16,19,-3,0,1,981.38
5,270,3,0,1,66,62,4,0,1,968.5
6,1,1,0,1,11,16,-5,0,0,1464.5
6,2,1,0,2,15,18,-3,0,1,1173.4
6,3,1,0,1,11,15,-4,0,0,1658.7
6,4,3,0,2,60,62,-2,0,1,1499.4
6,5,1,0,1,16,14,2,0,1,1665.4
6,6,2,0,1,40,39,1,0,1,1714
6,7,1,0,1,16,19,-3,0,0,1616.1
6,8,3,0,2,59,64,-5,0,1,1498
6,9,2,0,1,43,39,4,0,1,1328.8
6,10,2,0,2,38,39,-1,0,1,1206.6
6,11,3,0,1,65,63,2,0,1,1792.9
6,12,3,0,1,65,62,3,0,1,875.86
6,13,3,0,1,67,63,4,0,1,1012.1
6,14,2,0,1,38,39,-1,0,0,1510.2
6,15,2,0,1,40,41,-1,0,0,1548.2
6,16,2,1,1,39,35,4,0,1,1289.4
6,17,2,1,1,40,37,3,0,1,960.1
6,18,2,1,2,39,42,-3,0,1,724.76
6,19,2,1,1,39,37,2,0,1,819.48
6,20,2,1,2,41,40,1,0,0,1204.7
6,21,2,1,1,43,40,3,0,1,1151.8
6,22,2,1,2,39,43,-4,0,1,812.8
6,23,2,1,2,42,41,1,0,0,814.55
6,24,2,1,2,41,42,-1,0,1,1384.3
6,25,2,1,1,39,36,3,0,1,1187.5
6,26,2,1,2,37,39,-2,0,1,879.35
6,27,2,1,1,42,38,4,0,1,1302.1
6,28,2,1,2,39,40,-1,0,1,1453.3
6,29,2,1,2,37,40,-3,0,1,1613.8
6,30,2,1,1,43,41,2,0,1,880.15
6,31,1,0,2,16,13,3,0,0,1563.6
6,32,2,0,1,40,36,4,0,1,959.19
6,33,3,0,1,67,64,3,0,1,1211.8
6,34,1,0,1,11,16,-5,0,0,1542
6,35,3,0,2,61,65,-4,0,1,1291.7
6,36,2,0,2,37,39,-2,0,1,1467
6,37,3,0,2,64,67,-3,0,1,923.07
6,38,2,0,2,37,39,-2,0,1,1328.7
6,39,1,0,1,15,14,1,0,1,1742.2
6,40,2,0,2,35,37,-2,0,1,1923.3
6,41,1,0,2,14,18,-4,0,1,1785.8
6,42,1,0,2,14,15,-1,0,1,1509
6,43,3,0,2,63,62,1,0,0,1187.8
6,44,3,0,2,64,63,1,0,0,1591.1
6,45,2,0,2,35,40,-5,0,1,1538.6
6,46,1,1,2,11,14,-3,0,1,1601.7
6,47,1,1,2,14,13,1,0,0,2435.9
6,48,1,1,1,19,15,4,0,1,1541.4
6,49,1,1,2,15,16,-1,0,1,2178.1
6,50,1,1,2,18,17,1,0,0,1789.3
6,51,1,1,1,17,16,1,0,1,1528.7
6,52,1,1,1,15,13,2,0,1,1302.2
6,53,1,1,1,18,17,1,0,1,1884.6
6,54,1,1,1,15,19,-4,0,0,2020
6,55,1,1,1,15,11,4,0,1,910.7
6,56,1,1,1,15,12,3,0,1,1548.8
6,57,1,1,1,15,19,-4,0,0,1273.7
6,58,1,1,2,12,17,-5,0,1,985.77
6,59,1,1,1,18,15,3,0,1,2244.4
6,60,1,1,2,12,16,-4,0,1,2149.5
6,61,1,0,1,14,11,3,0,1,1003.9
6,62,2,0,2,39,41,-2,0,1,1302.5
6,63,1,0,2,17,18,-1,0,1,1613.4
6,64,3,0,1,63,60,3,0,1,1839.2
6,65,1,0,2,11,14,-3,0,1,1120.1
6,66,1,0,2,16,18,-2,0,1,1654.4
6,67,2,0,2,39,42,-3,0,1,912.12
6,68,2,0,1,40,37,3,0,1,1461.4
6,69,2,0,1,42,38,4,0,1,1093.6
6,70,3,0,2,59,64,-5,0,1,796.6
6,71,3,0,1,64,61,3,0,1,1231.6
6,72,2,0,2,35,36,-1,0,1,2088.8
6,73,3,0,1,65,60,5,0,1,1439.9
6,74,1,0,1,12,14,-2,0,0,936.89
6,75,3,0,2,63,65,-2,0,1,1174.6
6,76,3,1,1,66,65,1,0,1,1528.4
6,77,3,1,1,67,65,2,0,1,1037.9
6,78,3,1,1,66,62,4,0,1,1286.9
6,79,3,1,1,63,64,-1,0,0,1982.3
6,80,3,1,2,61,64,-3,0,1,1209.7
6,81,3,1,2,66,63,3,0,0,1244.5
6,82,3,1,1,65,64,1,0,1,2373.3
6,84,3,1,2,66,64,2,0,0,1430.6
6,85,3,1,2,61,64,-3,0,1,1943.5
6,86,3,1,2,61,63,-2,0,1,1301
6,87,3,1,2,61,66,-5,0,1,699.9
6,88,3,1,1,63,61,2,0,1,1386.1
6,89,3,1,2,63,67,-4,0,1,965.86
6,90,3,1,1,63,59,4,0,1,1018
6,91,1,0,2,12,14,-2,0,1,2068.4
6,92,1,0,1,16,12,4,0,1,612
6,93,1,0,2,13,14,-1,0,1,1877.9
6,94,3,0,2,64,66,-2,0,1,1069.4
6,95,2,0,1,43,38,5,0,1,2509.3
6,96,2,0,2,39,36,3,0,0,2235.8
6,97,1,0,1,14,15,-1,0,0,2013.5
6,98,3,0,1,64,60,4,0,1,1112
6,99,2,0,1,37,38,-1,0,0,2254.1
6,100,3,0,2,62,66,-4,0,1,1710.5
6,101,2,0,2,39,41,-2,0,1,1180.4
6,102,3,0,2,62,63,-1,0,1,1231.7
6,103,2,0,2,37,41,-4,0,1,665.12
6,104,1,0,1,17,14,3,0,1,1384.9
6,105,3,0,2,63,65,-2,0,1,1131.7
6,106,1,1,1,16,13,3,0,1,977.32
6,107,1,1,1,16,13,3,0,1,1420.9
6,108,1,1,2,14,18,-4,0,1,1911.5
6,109,1,1,2,14,19,-5,0,1,1173.5
6,110,1,1,1,19,17,2,0,1,1745.4
6,111,1,1,1,16,13,3,0,1,1190
6,112,1,1,1,17,15,2,0,1,1800.6
6,113,1,1,2,13,15,-2,0,1,1203.5
6,114,1,1,1,18,16,2,0,1,950.5
6,115,1,1,2,12,14,-2,0,1,2026.5
6,116,1,1,1,18,15,3,0,1,1644.6
6,117,1,1,1,18,15,3,0,1,1325.4
6,118,1,1,2,17,18,-1,0,1,2075.7
6,119,1,1,1,16,14,2,0,1,875.5
6,120,1,1,1,18,14,4,0,1,899.46
6,121,2,0,2,38,35,3,0,0,1651.2
6,122,3,0,1,60,59,1,0,1,1267.8
6,123,2,0,2,35,40,-5,0,1,899.36
6,124,3,0,2,59,63,-4,0,1,786.24
6,125,3,0,2,59,64,-5,0,1,757.71
6,126,1,0,2,14,15,-1,0,1,2090.5
6,127,2,0,2,37,39,-2,0,1,1193.5
6,128,1,0,1,18,14,4,0,1,973.29
6,129,3,0,2,59,60,-1,0,1,1849.3
6,130,1,0,2,11,13,-2,0,1,2170.1
6,131,1,0,1,13,12,1,0,1,1205.6
6,132,2,0,1,38,42,-4,0,0,1560.7
6,133,3,0,1,61,60,1,0,1,1269.1
6,134,1,0,2,15,17,-2,0,1,1292.7
6,135,2,0,2,36,38,-2,0,1,1164.2
6,136,3,1,2,66,65,1,0,0,805.3
6,137,3,1,1,65,64,1,0,1,1440.3
6,138,3,1,2,59,62,-3,0,1,1313.6
6,139,3,1,2,61,64,-3,0,1,1727.2
6,140,3,1,2,65,63,2,0,0,1613
6,141,3,1,1,66,63,3,0,1,911.24
6,142,3,1,2,59,62,-3,0,1,1589.6
6,143,3,1,1,64,62,2,0,1,673.47
6,144,3,1,1,60,64,-4,0,0,1128.8
6,145,3,1,1,63,60,3,0,1,1502.1
6,146,3,1,1,64,61,3,0,1,724.96
6,147,3,1,1,65,66,-1,0,0,1202.9
6,148,3,1,1,65,63,2,0,1,1477.3
6,149,3,1,1,62,61,1,0,1,1996.4
6,150,3,1,2,60,65,-5,0,1,968.02
6,151,3,0,2,59,62,-3,0,1,1123.7
6,152,2,0,2,37,36,1,0,0,1161.1
6,153,2,0,2,35,39,-4,0,1,934.41
6,154,1,0,1,12,11,1,0,1,2235
6,155,3,0,2,61,63,-2,0,1,940.82
6,156,2,0,2,35,39,-4,0,1,2025.8
6,157,1,0,2,11,12,-1,0,1,1155.8
6,158,1,0,2,11,16,-5,0,1,1024.7
6,159,3,0,2,62,65,-3,0,1,1794.5
6,160,1,0,2,13,17,-4,0,1,1029.1
6,161,2,0,1,36,35,1,0,1,1566.8
6,162,1,0,1,18,14,4,0,1,1618.8
6,163,3,0,2,63,66,-3,0,1,693.06
6,164,3,0,2,64,62,2,0,0,2612.1
6,165,2,0,1,43,40,3,0,1,1782.3
6,166,2,1,1,39,36,3,0,1,1682.4
6,167,2,1,2,39,43,-4,0,1,882.04
6,168,2,1,2,36,38,-2,0,1,1257.8
6,169,2,1,2,40,41,-1,0,1,1681.6
6,170,2,1,1,42,39,3,0,1,985.19
6,171,2,1,2,35,38,-3,0,1,1372.4
6,172,2,1,2,37,40,-3,0,1,816.48
6,173,2,1,1,43,39,4,0,1,1746.4
6,174,2,1,2,38,43,-5,0,1,1143.1
6,175,2,1,1,42,40,2,0,1,885.02
6,176,2,1,2,37,39,-2,0,1,1867.8
6,177,2,1,2,42,41,1,0,0,1132.2
6,178,2,1,1,42,39,3,0,1,1032.9
6,179,2,1,2,35,38,-3,0,1,834.97
6,180,2,1,2,40,41,-1,0,1,947.9
6,182,2,0,2,41,42,-1,0,1,1411.2
6,183,2,0,2,40,43,-3,0,1,814.01
6,184,3,0,1,62,63,-1,0,0,1416.2
6,185,3,0,2,61,63,-2,0,1,1345.8
6,186,2,0,2,41,38,3,0,0,2534.3
6,187,1,0,1,15,12,3,0,1,940.19
6,188,3,0,2,60,62,-2,0,1,1905.7
6,189,1,0,1,19,15,4,0,1,1112.5
6,190,3,0,2,59,63,-4,0,1,1102.1
6,191,2,0,1,41,39,2,0,1,2500.6
6,192,1,0,2,19,16,3,0,0,1179.2
6,193,1,0,2,13,15,-2,0,1,2031.1
6,194,3,0,2,61,63,-2,0,1,1360.4
6,195,2,0,2,38,41,-3,0,1,932.6
6,196,2,1,1,41,40,1,0,1,1791.4
6,197,2,1,1,41,39,2,0,1,1722.3
6,198,2,1,2,38,42,-4,0,1,736.43
6,199,2,1,2,41,39,2,0,0,1029.8
6,200,2,1,1,40,37,3,0,1,791.05
6,201,2,1,1,43,39,4,0,1,1130.5
6,202,2,1,2,37,42,-5,0,1,672.18
6,203,2,1,2,36,40,-4,0,1,711.77
6,204,2,1,1,40,38,2,0,1,1478.2
6,205,2,1,1,40,37,3,0,1,1293.9
6,206,2,1,2,40,38,2,0,0,660.65
6,207,2,1,1,42,39,3,0,1,1093.4
6,208,2,1,2,36,41,-5,0,1,1188.7
6,209,2,1,2,37,40,-3,0,1,2136.1
6,210,2,1,2,38,37,1,0,0,1901.7
6,211,3,0,1,67,62,5,0,1,767.41
6,212,3,0,2,59,61,-2,0,1,947.06
6,213,2,0,1,42,38,4,0,1,839.62
6,214,3,0,2,61,62,-1,0,1,561.29
6,215,1,0,1,17,15,2,0,1,1861.8
6,216,1,0,2,13,15,-2,0,1,1213.5
6,217,3,0,2,63,65,-2,0,1,1887.2
6,218,2,0,2,39,41,-2,0,1,2046.9
6,219,1,0,2,16,17,-1,0,1,1895.6
6,220,2,0,2,40,38,2,0,0,2390.4
6,221,2,0,2,38,39,-1,0,1,1338
6,222,1,0,2,15,17,-2,0,1,1078.5
6,223,2,0,1,41,36,5,0,1,1135.1
6,224,3,0,1,66,62,4,0,1,900.16
6,225,1,0,2,14,17,-3,0,1,1226.9
6,226,3,1,1,63,60,3,0,1,2030.7
6,227,3,1,2,63,67,-4,0,1,584.37
6,228,3,1,2,61,63,-2,0,1,1387.3
6,229,3,1,1,64,61,3,0,1,782.92
6,230,3,1,2,64,62,2,0,0,737.82
6,231,3,1,1,64,61,3,0,1,1159.1
6,232,3,1,1,67,64,3,0,1,1324.2
6,233,3,1,1,66,63,3,0,1,1394.3
6,234,3,1,2,62,67,-5,0,1,1037.1
6,235,3,1,2,64,65,-1,0,1,1358.5
6,236,3,1,1,67,63,4,0,1,658.87
6,237,3,1,1,67,63,4,0,1,947.35
6,238,3,1,2,63,66,-3,0,1,640.05
6,239,3,1,2,60,62,-2,0,1,1177.3
6,240,3,1,2,62,66,-4,0,1,588.26
6,241,1,0,2,15,17,-2,0,1,2176.7
6,242,2,0,1,39,38,1,0,1,1355.6
6,243,2,0,2,35,40,-5,0,1,856.07
6,244,3,0,1,66,62,4,0,1,1057.2
6,245,2,0,2,40,42,-2,0,1,786.28
6,246,1,0,2,13,15,-2,0,1,957.47
6,247,3,0,2,64,65,-1,0,1,1714
6,248,1,0,1,17,12,5,0,1,816.23
6,249,3,0,2,65,66,-1,0,1,1193.7
6,250,2,0,2,36,38,-2,0,1,805.29
6,251,3,0,2,62,63,-1,0,1,1336.3
6,252,3,0,1,62,59,3,0,1,981.29
6,253,1,0,2,11,15,-4,0,1,872.45
6,254,2,0,2,35,38,-3,0,1,1816.5
6,255,1,0,1,19,14,5,0,1,850.47
6,256,1,1,1,13,16,-3,0,0,1463.4
6,257,1,1,2,13,16,-3,0,1,1062.7
6,258,1,1,1,17,16,1,0,1,1526.7
6,260,1,1,1,15,12,3,0,1,918.97
6,261,1,1,2,11,14,-3,0,1,1013.7
6,262,1,1,2,13,15,-2,0,1,2543.2
6,263,1,1,2,16,14,2,0,0,2564.1
6,264,1,1,2,13,16,-3,0,1,1120.5
6,265,1,1,1,19,16,3,0,1,990.22
6,266,1,1,2,13,18,-5,0,1,905.97
6,267,1,1,2,16,17,-1,0,1,1312.6
6,268,1,1,2,15,18,-3,0,1,1054.7
6,269,1,1,1,17,15,2,0,1,919.02
6,270,1,1,2,16,17,-1,0,1,2053.6
8,1,1,0,2,15,17,-2,0,1,2112
8,2,2,0,2,35,36,-1,0,1,2186.5
8,3,1,0,2,19,16,3,0,0,2038.4
8,4,2,0,1,37,38,-1,0,0,2072.3
8,5,2,0,2,35,39,-4,0,1,2384.3
8,6,2,0,2,35,40,-5,0,1,1803.5
8,7,3,0,1,65,62,3,0,1,2014
8,8,3,0,2,64,67,-3,0,1,1840.3
8,9,3,0,1,60,62,-2,0,0,1521.7
8,10,3,0,2,62,65,-3,0,1,1423.7
8,11,1,0,2,13,14,-1,0,1,1953.8
8,12,1,0,2,14,15,-1,0,1,1518.9
8,13,1,0,2,13,12,1,0,0,2596.6
8,14,2,0,1,40,39,1,0,1,2431.4
8,15,3,0,1,64,61,3,0,1,1681.1
8,16,3,1,2,64,65,-1,0,1,2092.9
8,17,3,1,2,64,65,-1,0,1,2444
8,18,3,1,1,67,63,4,0,1,1005.2
8,19,3,1,1,66,65,1,0,1,1151.7
8,20,3,1,2,60,65,-5,0,1,1060.3
8,21,3,1,2,61,64,-3,0,1,1012.5
8,22,3,1,2,61,66,-5,0,1,1367.6
8,23,3,1,1,63,59,4,0,1,1163.4
8,24,3,1,2,65,64,1,0,0,2311.6
8,25,3,1,2,60,62,-2,0,1,1485.9
8,26,3,1,1,64,61,3,0,1,1148.5
8,27,3,1,2,62,67,-5,0,1,1273.7
8,28,3,1,1,63,61,2,0,1,2049.7
8,29,3,1,1,66,62,4,0,1,1506.6
8,30,3,1,2,59,62,-3,0,1,1705.4
8,31,2,0,1,40,37,3,0,1,1501.5
8,32,2,0,1,41,38,3,0,1,860.47
8,33,1,0,2,11,15,-4,0,1,1083.5
8,34,2,0,2,40,43,-3,0,1,1275.4
8,35,3,0,1,61,60,1,0,1,1915.5
8,36,1,0,2,14,15,-1,0,1,1889.4
8,37,1,0,2,13,15,-2,0,1,1521
8,38,1,0,1,14,11,3,0,1,1094.9
8,39,3,0,2,59,62,-3,0,1,1085.3
8,40,1,0,1,16,14,2,0,1,2061
8,41,3,0,2,60,62,-2,0,1,1205.1
8,42,3,0,1,63,60,3,0,1,1632.5
8,43,3,0,1,66,62,4,0,1,1209.6
8,44,2,0,1,43,38,5,0,1,1571.5
8,45,2,0,2,35,38,-3,0,1,1711.5
8,46,1,1,1,19,15,4,0,1,1501.4
8,47,1,1,1,18,15,3,0,1,1307.5
8,48,1,1,2,11,14,-3,0,1,1642.6
8,49,1,1,1,16,14,2,0,1,2203.5
8,50,1,1,2,14,13,1,0,0,2134.9
8,51,1,1,1,19,17,2,0,1,1604.3
8,52,1,1,1,18,15,3,0,1,1398.9
8,53,1,1,1,18,16,2,0,1,1225.7
8,54,1,1,2,15,16,-1,0,1,1499.2
8,55,1,1,1,15,11,4,0,1,1322.1
8,56,1,1,2,13,15,-2,0,1,1792.2
8,57,1,1,1,19,16,3,0,1,988.1
8,58,1,1,2,13,16,-3,0,1,1511.1
8,59,1,1,2,15,19,-4,0,1,1101.5
8,60,1,1,2,16,17,-1,0,1,2284.5
8,61,3,0,2,62,63,-1,0,1,1177.1
8,62,3,0,2,63,62,1,0,0,804.62
8,63,1,0,2,12,14,-2,0,1,1807.3
8,64,2,0,1,41,36,5,0,1,1298.2
8,65,1,0,1,18,14,4,0,1,1320.7
8,66,1,0,1,13,15,-2,0,0,1015
8,67,2,0,2,37,41,-4,0,1,1105.4
8,68,1,0,2,14,17,-3,0,1,1487.8
8,69,3,0,2,59,61,-2,0,1,1382.8
8,70,3,0,2,59,64,-5,0,1,1114.5
8,71,3,0,1,65,60,5,0,1,928.58
8,72,2,0,1,38,35,3,0,1,1301.9
8,73,1,0,2,17,18,-1,0,1,1916.7
8,74,2,0,2,37,39,-2,0,1,1018.4
8,75,2,0,2,40,38,2,0,0,2196.8
8,76,1,1,2,13,18,-5,0,1,1087.2
8,77,1,1,2,14,18,-4,0,1,1022.4
8,78,1,1,2,13,15,-2,0,1,1200.7
8,79,1,1,1,15,12,3,0,1,1099.9
8,80,1,1,2,12,17,-5,0,1,946.29
8,81,1,1,1,16,13,3,0,1,870.63
8,82,1,1,2,12,16,-4,0,1,1023.4
8,83,1,1,1,17,15,2,0,1,696.87
8,84,1,1,2,13,16,-3,0,1,1088
8,85,1,1,1,17,16,1,0,1,839.09
8,86,1,1,2,14,19,-5,0,1,760.08
8,87,1,1,1,15,12,3,0,1,1349
8,88,1,1,2,12,14,-2,0,1,946.11
8,89,1,1,1,16,13,3,0,1,758.12
8,90,1,1,1,17,15,2,0,1,891.66
8,91,2,0,2,39,42,-3,0,1,887.34
8,92,2,0,1,35,39,-4,0,0,1118.6
8,93,3,0,2,63,65,-2,0,1,876.97
8,94,3,0,2,61,63,-2,0,1,1068.8
8,95,1,0,2,15,17,-2,0,1,1756.7
8,96,1,0,2,13,15,-2,0,1,1585.7
8,97,1,0,2,15,14,1,0,0,1620.9
8,98,1,0,1,19,14,5,0,1,959.9
8,99,2,0,1,36,35,1,0,1,1332.9
8,100,1,0,1,16,15,1,0,1,1296.9
8,101,3,0,2,63,65,-2,0,1,1311.6
8,102,3,0,2,63,65,-2,0,1,789.67
8,103,3,0,2,64,65,-1,0,1,1041.5
8,104,2,0,2,38,39,-1,0,1,2059.1
8,105,2,0,1,40,42,-2,0,0,1258.9
8,106,2,1,2,35,38,-3,0,1,1125.5
8,107,2,1,1,40,37,3,0,1,1259.2
8,108,2,1,1,40,38,2,0,1,1779.2
8,109,2,1,1,39,36,3,0,1,1998.8
8,110,2,1,1,42,40,2,0,1,1201.4
8,111,2,1,2,40,41,-1,0,1,2324.6
8,112,2,1,1,43,39,4,0,1,1394.4
8,113,2,1,2,37,40,-3,0,1,1750.5
8,114,2,1,2,39,42,-3,0,1,1563
8,115,2,1,1,43,41,2,0,1,1006.9
8,116,2,1,2,37,40,-3,0,1,2121.4
8,117,2,1,2,41,42,-1,0,1,2543.5
8,118,2,1,1,37,40,-3,0,0,2516.6
8,119,2,1,1,42,38,4,0,1,1307.2
8,120,2,1,1,41,39,2,0,1,2033.5
8,121,2,0,2,38,42,-4,0,1,1066.9
8,122,1,0,1,17,15,2,0,1,1938.7
8,123,1,0,1,15,18,-3,0,0,1440
8,124,2,0,2,37,39,-2,0,1,1505.3
8,125,3,0,2,59,60,-1,0,1,1319.9
8,126,3,0,2,59,64,-5,0,1,1078.3
8,127,1,0,2,16,18,-2,0,1,1589.5
8,128,3,0,2,59,63,-4,0,1,864.61
8,129,2,0,2,39,38,1,0,0,968.67
8,130,2,0,2,35,40,-5,0,1,1700.6
8,131,3,0,1,60,59,1,0,1,947.25
8,132,1,0,2,13,17,-4,0,1,2136.3
8,133,2,0,2,38,39,-1,0,1,2405.7
8,134,3,0,2,62,63,-1,0,1,1232.5
8,135,1,0,1,12,11,1,0,1,2273.3
8,136,2,1,2,37,39,-2,0,1,2165
8,137,2,1,2,38,42,-4,0,1,1480.1
8,138,2,1,2,35,38,-3,0,1,1887.7
8,139,2,1,2,39,43,-4,0,1,1735.1
8,140,2,1,1,42,39,3,0,1,1181.4
8,141,2,1,1,40,38,2,0,1,1696.1
8,142,2,1,2,42,39,3,0,0,1414.9
8,143,2,1,2,37,39,-2,0,1,1712.3
8,144,2,1,2,38,43,-5,0,1,1118.4
8,145,2,1,1,39,40,-1,0,0,2429
8,146,2,1,1,39,36,3,0,1,1582.6
8,147,2,1,2,41,40,1,0,0,1434.1
8,148,2,1,1,40,37,3,0,1,1691
8,149,2,1,2,36,40,-4,0,1,1714.2
8,150,2,1,1,40,41,-1,0,0,1640.2
8,151,1,0,2,11,16,-5,0,1,1287.5
8,152,3,0,2,61,65,-4,0,1,981.63
8,153,2,0,2,39,41,-2,0,1,1617.2
8,154,1,0,2,11,15,-4,0,1,1499.7
8,155,2,0,2,43,40,3,0,0,2250.6
8,156,1,0,1,15,12,3,0,1,1331
8,157,3,0,1,67,64,3,0,1,1079.9
8,158,3,0,1,64,63,1,0,1,1503.3
8,159,3,0,1,62,59,3,0,1,1790.1
8,160,3,0,1,64,62,2,0,1,1201.9
8,161,1,0,2,11,16,-5,0,1,1388.1
8,162,2,0,2,37,39,-2,0,1,1383.5
8,163,2,0,2,38,41,-3,0,1,1034.9
8,164,2,0,1,42,38,4,0,1,780.19
8,165,1,0,2,11,12,-1,0,1,1640.3
8,166,2,1,1,42,39,3,0,1,1522.9
8,167,2,1,1,43,39,4,0,1,1488.4
8,168,2,1,2,41,40,1,0,0,1911.9
8,169,2,1,2,37,42,-5,0,1,861.87
8,170,2,1,1,36,38,-2,0,0,2294.3
8,171,2,1,1,41,39,2,0,1,1797.6
8,172,2,1,1,40,37,3,0,1,1216.2
8,173,2,1,1,39,37,2,0,1,1458.8
8,174,2,1,1,39,35,4,0,1,1411.3
8,175,2,1,1,42,41,1,0,1,1086.1
8,176,2,1,1,43,40,3,0,1,1045.2
8,177,2,1,2,42,41,1,0,0,1526.1
8,178,2,1,2,36,41,-5,0,1,1532
8,179,2,1,1,38,37,1,0,1,2129.2
8,180,2,1,2,39,43,-4,0,1,1214.3
8,181,2,0,2,35,37,-2,0,1,1859.4
8,182,1,0,1,16,12,4,0,1,1187.5
8,183,3,0,2,63,66,-3,0,1,1302.8
8,184,3,0,2,59,64,-5,0,1,1885.5
8,185,2,0,1,39,36,3,0,1,2021.3
8,186,2,0,1,37,36,1,0,1,1646.8
8,187,2,0,2,36,38,-2,0,1,1935.2
8,188,1,0,1,17,14,3,0,1,2469.1
8,189,3,0,2,65,66,-1,0,1,1141.4
8,190,1,0,2,11,14,-3,0,1,2322.5
8,191,3,0,2,61,62,-1,0,1,2408.4
8,192,3,0,2,64,66,-2,0,1,2404.3
8,193,2,0,1,39,41,-2,0,0,2534.6
8,194,1,0,2,11,13,-2,0,1,2475.7
8,195,1,0,2,14,18,-4,0,1,1987.7
8,196,1,1,1,16,13,3,0,1,1684.4
8,197,1,1,2,15,19,-4,0,1,1259.7
8,198,1,1,1,18,17,1,0,1,852.78
8,199,1,1,2,11,14,-3,0,1,1221.3
8,200,1,1,1,16,14,2,0,1,1247.4
8,201,1,1,1,18,15,3,0,1,1456
8,202,1,1,1,19,15,4,0,1,1016.7
8,203,1,1,2,17,18,-1,0,1,2155.2
8,204,1,1,2,16,17,-1,0,1,1871.7
8,205,1,1,1,18,14,4,0,1,999.6
8,206,1,1,2,13,16,-3,0,1,874.04
8,207,1,1,1,18,17,1,0,1,762.35
8,208,1,1,1,15,13,2,0,1,958.17
8,209,1,1,1,17,16,1,0,1,1499
8,210,1,1,2,15,18,-3,0,1,1281.8
8,211,2,0,2,39,41,-2,0,1,1957.2
8,212,1,0,1,16,13,3,0,1,1321.9
8,213,1,0,2,16,17,-1,0,1,2128.1
8,214,3,0,2,61,63,-2,0,1,917.94
8,215,2,0,1,41,39,2,0,1,1971.8
8,216,1,0,2,12,14,-2,0,1,1815.6
8,217,2,0,2,38,39,-1,0,1,1729.8
8,218,1,0,1,15,17,-2,0,0,1391.8
8,219,3,0,1,67,62,5,0,1,834.69
8,220,3,0,2,62,66,-4,0,1,1284.4
8,221,1,0,1,17,12,5,0,1,1115.9
8,222,3,0,2,66,62,4,0,0,1721.3
8,223,2,0,1,43,39,4,0,1,975.49
8,224,3,0,2,61,63,-2,0,1,1219.5
8,225,2,0,2,36,38,-2,0,1,1741.9
8,226,3,1,2,63,67,-4,0,1,1281.8
8,227,3,1,2,63,64,-1,0,1,1456.9
8,228,3,1,2,65,66,-1,0,1,2569
8,229,3,1,2,60,64,-4,0,1,1229
8,230,3,1,1,66,63,3,0,1,1118.9
8,231,3,1,1,65,63,2,0,1,1452.6
8,232,3,1,1,66,64,2,0,1,1365.6
8,233,3,1,1,67,64,3,0,1,985.51
8,234,3,1,2,63,66,-3,0,1,2021
8,235,3,1,1,66,63,3,0,1,1222.3
8,236,3,1,1,64,62,2,0,1,1417.2
8,237,3,1,1,64,62,2,0,1,755.07
8,238,3,1,1,65,63,2,0,1,847.41
8,239,3,1,2,61,64,-3,0,1,1120.6
8,240,3,1,2,62,66,-4,0,1,718.52
8,241,1,0,2,14,15,-1,0,1,1412.4
8,242,3,0,1,64,60,4,0,1,781.57
8,243,1,0,1,18,14,4,0,1,1289.7
8,244,3,0,1,67,63,4,0,1,840.61
8,245,3,0,2,62,63,-1,0,1,1321.9
8,246,1,0,2,16,19,-3,0,1,1544.3
8,247,2,0,2,41,42,-1,0,1,1117.4
8,248,3,0,2,59,63,-4,0,1,1147.2
8,249,2,0,1,40,36,4,0,1,864.21
8,250,1,0,1,19,15,4,0,1,1432.7
8,251,1,0,2,11,16,-5,0,1,833.73
8,252,3,0,1,65,63,2,0,1,1554.7
8,253,2,0,2,40,41,-1,0,1,1503.9
8,254,2,0,1,42,38,4,0,1,1431.2
8,255,2,0,2,35,40,-5,0,1,1591.9
8,256,3,1,2,61,64,-3,0,1,1332.5
8,257,3,1,1,66,65,1,0,1,2329.2
8,258,3,1,1,66,63,3,0,1,1854.8
8,259,3,1,1,67,63,4,0,1,871.34
8,260,3,1,1,63,60,3,0,1,1111.4
8,261,3,1,1,65,64,1,0,1,2421.2
8,262,3,1,1,64,61,3,0,1,1471.6
8,263,3,1,1,62,61,1,0,1,1271.7
8,264,3,1,2,61,63,-2,0,1,2055.7
8,266,3,1,2,59,62,-3,0,1,2229
8,267,3,1,1,67,65,2,0,1,1094.3
8,268,3,1,1,64,61,3,0,1,1597.2
8,269,3,1,2,63,67,-4,0,1,848.2
8,270,3,1,1,63,60,3,0,1,1856.9
9,1,1,0,1,16,14,2,0,1,2461.3
9,2,3,0,2,67,64,3,0,0,1401.5
9,3,1,0,1,17,12,5,0,1,1341.4
9,4,1,0,1,19,15,4,0,1,1195
9,5,2,0,1,39,36,3,0,1,1541.7
9,6,2,0,1,43,40,3,0,1,1667.2
9,7,3,0,2,67,63,4,0,0,1027.2
9,8,2,0,1,42,38,4,0,1,1836.9
9,9,3,0,1,66,62,4,0,1,1318
9,10,3,0,2,63,65,-2,0,1,1140.4
9,11,2,0,1,40,37,3,0,1,1113.6
9,12,1,0,1,18,14,4,0,1,2327.4
9,13,2,0,1,40,39,1,0,1,2238
9,14,1,0,2,16,18,-2,0,1,1247.2
9,15,3,0,2,65,62,3,0,0,1416
9,17,3,1,2,66,65,1,0,0,1111.7
9,18,3,1,1,67,65,2,0,1,997.63
9,19,3,1,1,66,64,2,0,1,2544.6
9,20,3,1,1,67,63,4,0,1,949.2
9,21,3,1,2,61,66,-5,0,1,978.09
9,22,3,1,2,61,63,-2,0,1,1813.3
9,23,3,1,2,62,66,-4,0,1,879.71
9,24,3,1,1,63,59,4,0,1,1127.2
9,25,3,1,1,64,61,3,0,1,1388.7
9,26,3,1,2,60,65,-5,0,1,1200.3
9,27,3,1,2,61,64,-3,0,1,1178.7
9,28,3,1,2,63,67,-4,0,1,982.59
9,29,3,1,2,61,64,-3,0,1,1506.1
9,30,3,1,2,59,62,-3,0,1,1368.6
9,31,2,0,1,38,39,-1,0,0,1999.3
9,32,3,0,1,64,61,3,0,1,1297
9,33,2,0,2,35,40,-5,0,1,1288.1
9,34,1,0,2,13,17,-4,0,1,1271.1
9,35,3,0,2,62,63,-1,0,1,2607.4
9,36,2,0,1,39,38,1,0,1,1890
9,38,2,0,2,39,42,-3,0,1,2114.4
9,39,3,0,1,63,60,3,0,1,1895.9
9,40,3,0,2,59,64,-5,0,1,1046.4
9,42,1,0,2,14,18,-4,0,1,1490.8
9,44,2,0,1,43,39,4,0,1,1146.7
9,45,3,0,2,59,63,-4,0,1,1639.1
9,46,1,1,2,15,19,-4,0,1,1296.6
9,47,1,1,1,18,15,3,0,1,1719.4
9,48,1,1,1,16,13,3,0,1,1221.5
9,49,1,1,2,14,18,-4,0,1,951.03
9,52,1,1,1,18,17,1,0,1,2389.9
9,54,1,1,2,11,14,-3,0,1,1746.2
9,57,1,1,2,12,17,-5,0,1,1574.2
9,58,1,1,2,13,16,-3,0,1,2482.1
9,61,3,0,2,59,61,-2,0,1,1454
9,64,3,0,2,60,62,-2,0,1,1388.7
9,68,1,0,2,11,16,-5,0,1,2439.3
9,69,2,0,2,35,36,-1,0,1,2329
9,70,1,0,2,12,14,-2,0,1,2270.4
9,71,1,0,2,16,17,-1,0,1,2006.7
9,72,3,0,1,64,62,2,0,1,2657.1
9,76,3,1,2,66,63,3,0,0,943.61
9,77,3,1,2,63,66,-3,0,1,612.47
9,78,3,1,1,66,65,1,0,1,806.99
9,79,3,1,2,63,61,2,0,0,1313.1
9,80,3,1,2,64,62,2,0,0,824.04
9,81,3,1,1,66,62,4,0,1,1473.5
9,82,3,1,2,60,64,-4,0,1,841.28
9,83,3,1,2,64,65,-1,0,1,755.22
9,84,3,1,1,62,61,1,0,1,1367.8
9,85,3,1,2,63,67,-4,0,1,795.42
9,86,3,1,1,67,64,3,0,1,854.44
9,87,3,1,2,65,66,-1,0,1,942.91
9,88,3,1,2,65,63,2,0,0,820.3
9,89,3,1,1,64,61,3,0,1,1158.3
9,90,3,1,2,61,63,-2,0,1,1523
9,91,3,0,2,61,60,1,0,0,1803.5
9,92,2,0,1,40,38,2,0,1,2405.8
9,93,3,0,2,59,63,-4,0,1,1048.8
9,94,1,0,1,16,12,4,0,1,1449.3
9,95,2,0,1,40,36,4,0,1,1161.7
9,96,1,0,1,14,15,-1,0,0,2573.9
9,97,3,0,2,65,66,-1,0,1,1001.9
9,98,2,0,2,37,41,-4,0,1,1125.2
9,99,3,0,2,63,65,-2,0,1,1202.6
9,100,3,0,2,59,64,-5,0,1,990.06
9,101,1,0,1,14,15,-1,0,0,1705.1
9,102,2,0,1,41,39,2,0,1,1095.8
9,103,1,0,2,13,15,-2,0,1,1246.4
9,104,2,0,2,40,42,-2,0,1,1390.8
9,105,1,0,2,15,14,1,0,0,1330.3
9,106,3,1,2,63,64,-1,0,1,1072.5
9,107,3,1,1,65,64,1,0,1,1952.5
9,108,3,1,1,63,60,3,0,1,1157.2
9,109,3,1,1,66,63,3,0,1,1017.7
9,110,3,1,2,64,65,-1,0,1,1547.9
9,111,3,1,2,59,62,-3,0,1,1664.5
9,112,3,1,1,64,61,3,0,1,728.53
9,113,3,1,2,61,64,-3,0,1,694
9,114,3,1,1,64,62,2,0,1,1789.3
9,115,3,1,1,66,63,3,0,1,937.01
9,116,3,1,2,62,67,-5,0,1,837.8
9,117,3,1,1,65,63,2,0,1,1727.6
9,118,3,1,2,65,64,1,0,0,1605.4
9,119,3,1,1,67,63,4,0,1,1016.3
9,120,3,1,2,60,62,-2,0,1,1585.9
9,121,1,0,2,13,15,-2,0,1,1407.6
9,122,3,0,2,64,60,4,0,0,1282.6
9,123,2,0,2,39,41,-2,0,1,1817.4
9,124,2,0,2,37,39,-2,0,1,1075.6
9,125,2,0,2,37,39,-2,0,1,1091.7
9,126,3,0,2,59,62,-3,0,1,1682.9
9,127,1,0,2,12,14,-2,0,1,1194.8
9,128,1,0,2,17,18,-1,0,1,1125.4
9,129,3,0,2,61,63,-2,0,1,1115.4
9,130,1,0,1,18,14,4,0,1,1609.9
9,131,2,0,1,41,36,5,0,1,1220.5
9,132,1,0,2,11,16,-5,0,1,1046.3
9,133,2,0,1,38,41,-3,0,0,1687.7
9,134,3,0,2,62,66,-4,0,1,982.66
9,135,3,0,2,62,63,-1,0,1,1330.1
9,136,1,1,1,15,11,4,0,1,1014.3
9,137,1,1,1,15,13,2,0,1,1432.7
9,138,1,1,2,17,15,2,0,0,2537.3
9,139,1,1,2,15,18,-3,0,1,958.62
9,140,1,1,1,16,13,3,0,1,1291.6
9,141,1,1,1,19,15,4,0,1,1186.8
9,142,1,1,1,17,16,1,0,1,1022.3
9,143,1,1,1,15,12,3,0,1,920.18
9,144,1,1,2,13,18,-5,0,1,1038
9,145,1,1,2,13,15,-2,0,1,1744
9,146,1,1,2,17,15,2,0,0,1525.1
9,147,1,1,2,12,16,-4,0,1,915.22
9,148,1,1,2,11,14,-3,0,1,2025.1
9,149,1,1,2,13,15,-2,0,1,1683.5
9,150,1,1,1,16,13,3,0,1,1218.4
9,151,3,0,2,63,66,-3,0,1,1536.8
9,152,1,0,1,15,12,3,0,1,1229.6
9,153,3,0,2,64,66,-2,0,1,871.13
9,154,1,0,2,16,19,-3,0,1,1279.6
9,155,2,0,2,38,42,-4,0,1,1910.7
9,156,2,0,2,41,42,-1,0,1,805.67
9,157,1,0,2,11,15,-4,0,1,1047.8
9,158,1,0,1,17,15,2,0,1,1120.5
9,159,2,0,2,35,40,-5,0,1,959.38
9,160,3,0,2,61,63,-2,0,1,1331.5
9,161,1,0,1,15,17,-2,0,0,1409
9,162,2,0,2,38,39,-1,0,1,891.73
9,163,2,0,1,38,39,-1,0,0,1979.5
9,164,3,0,2,64,65,-1,0,1,2318
9,165,3,0,2,62,63,-1,0,1,1188.2
9,166,2,1,2,42,40,2,0,0,1660.3
9,167,2,1,2,38,42,-4,0,1,964.86
9,168,2,1,1,43,41,2,0,1,672.1
9,169,2,1,1,43,39,4,0,1,904.67
9,170,2,1,2,39,43,-4,0,1,871.14
9,171,2,1,1,40,37,3,0,1,831.46
9,172,2,1,1,35,38,-3,0,0,1456.6
9,173,2,1,2,39,42,-3,0,1,913.21
9,174,2,1,1,40,41,-1,0,0,1439.7
9,175,2,1,1,41,39,2,0,1,2288.8
9,176,2,1,2,39,43,-4,0,1,1367.8
9,177,2,1,2,37,39,-2,0,1,2148
9,178,2,1,2,35,38,-3,0,1,1321.1
9,179,2,1,2,37,42,-5,0,1,1095.1
9,180,2,1,2,36,38,-2,0,1,1629.5
9,181,3,0,2,62,65,-3,0,1,841.27
9,182,1,0,1,11,14,-3,0,0,1194.2
9,183,3,0,2,61,63,-2,0,1,1261.7
9,184,2,0,2,35,39,-4,0,1,1141.3
9,185,1,0,1,13,14,-1,0,0,2018.6
9,186,1,0,2,13,15,-2,0,1,908.77
9,187,3,0,1,63,65,-2,0,0,1659.8
9,188,3,0,2,59,60,-1,0,1,1172.2
9,189,1,0,1,16,15,1,0,1,1521
9,190,1,0,2,14,15,-1,0,1,1262.3
9,191,2,0,1,43,38,5,0,1,1142.6
9,192,2,0,1,36,38,-2,0,0,1707.9
9,193,2,0,2,40,43,-3,0,1,1107
9,194,2,0,1,38,35,3,0,1,1345.6
9,195,3,0,2,61,65,-4,0,1,1094.3
9,196,2,1,2,36,40,-4,0,1,1401.7
9,197,2,1,2,40,41,-1,0,1,700.26
9,198,2,1,1,40,37,3,0,1,930.83
9,199,2,1,1,40,38,2,0,1,1728.5
9,200,2,1,1,42,38,4,0,1,1245.1
9,201,2,1,1,39,35,4,0,1,1158.2
9,202,2,1,2,39,40,-1,0,1,1427.2
9,203,2,1,1,42,41,1,0,1,1420.9
9,204,2,1,1,40,37,3,0,1,1766.5
9,205,2,1,2,37,39,-2,0,1,2123.2
9,206,2,1,1,37,40,-3,0,0,1721.3
9,207,2,1,2,41,40,1,0,0,1847.2
9,208,2,1,1,42,39,3,0,1,935.66
9,209,2,1,1,42,39,3,0,1,1701.2
9,210,2,1,1,39,36,3,0,1,1940.2
9,211,1,0,2,11,16,-5,0,1,993.88
9,212,2,0,2,35,39,-4,0,1,773.23
9,213,3,0,1,65,60,5,0,1,1064.6
9,214,2,0,2,39,41,-2,0,1,2280.2
9,215,2,0,1,37,36,1,0,1,1248.1
9,216,2,0,2,35,40,-5,0,1,1016.8
9,217,1,0,2,15,18,-3,0,1,1171.4
9,218,3,0,1,62,59,3,0,1,1574.6
9,219,2,0,2,40,41,-1,0,1,1858.8
9,220,3,0,2,60,62,-2,0,1,2683.5
9,221,1,0,2,11,12,-1,0,1,2098.6
9,222,1,0,1,14,11,3,0,1,1379.4
9,223,3,0,1,66,62,4,0,1,973.04
9,224,1,0,2,15,17,-2,0,1,1601
9,225,3,0,2,61,62,-1,0,1,2347.7
9,226,2,1,1,39,36,3,0,1,1380.5
9,227,2,1,1,43,39,4,0,1,838.85
9,228,2,1,1,40,38,2,0,1,1712.7
9,229,2,1,2,41,42,-1,0,1,2158.7
9,230,2,1,1,39,37,2,0,1,1258.8
9,231,2,1,1,41,40,1,0,1,1907.7
9,232,2,1,2,37,40,-3,0,1,842.47
9,233,2,1,1,43,40,3,0,1,1292
9,234,2,1,2,38,43,-5,0,1,1203.3
9,235,2,1,1,42,41,1,0,1,894.37
9,236,2,1,1,42,39,3,0,1,949.47
9,237,2,1,1,38,37,1,0,1,1698
9,238,2,1,2,41,39,2,0,0,1728.7
9,239,2,1,2,36,41,-5,0,1,1046
9,240,2,1,2,37,40,-3,0,1,1463
9,241,2,0,2,37,39,-2,0,1,1968.2
9,242,1,0,1,19,14,5,0,1,867.84
9,243,3,0,1,65,63,2,0,1,1843.5
9,244,1,0,2,11,15,-4,0,1,981.21
9,245,1,0,1,17,14,3,0,1,832.67
9,246,2,0,2,35,37,-2,0,1,1618
9,247,2,0,2,35,38,-3,0,1,1412.3
9,248,2,0,2,36,38,-2,0,1,1430.1
9,249,3,0,2,64,67,-3,0,1,799.02
9,250,1,0,2,15,17,-2,0,1,1666
9,251,3,0,2,63,62,1,0,0,1073.6
9,252,3,0,1,67,62,5,0,1,1050.4
9,253,2,0,1,41,38,3,0,1,1042.6
9,254,1,0,1,19,16,3,0,1,1236
9,255,3,0,2,59,64,-5,0,1,909.51
9,256,1,1,1,18,15,3,0,1,1408.1
9,257,1,1,1,14,13,1,0,1,1674.8
9,258,1,1,2,15,19,-4,0,1,1386.2
9,259,1,1,2,16,14,2,0,0,2149.4
9,260,1,1,1,18,16,2,0,1,1850.3
9,261,1,1,2,16,14,2,0,0,1443.1
9,262,1,1,2,14,19,-5,0,1,1996.4
9,263,1,1,2,13,16,-3,0,1,1550.8
9,264,1,1,1,18,14,4,0,1,1291.9
9,265,1,1,1,19,15,4,0,1,819.16
9,266,1,1,1,15,12,3,0,1,1053.2
9,267,1,1,2,15,16,-1,0,1,902.15
9,268,1,1,1,19,17,2,0,1,725.16
9,269,1,1,1,18,17,1,0,1,1610.2
9,270,1,1,2,16,17,-1,0,1,1549.4
10,1,2,0,2,38,41,-3,0,1,1477.5
10,2,1,0,2,15,17,-2,0,1,3417.3
10,3,2,0,2,39,38,1,0,0,1173.5
10,4,2,0,2,38,39,-1,0,1,3265
10,5,2,0,1,39,36,3,0,1,1473.3
10,6,1,0,1,13,12,1,0,1,2009
10,7,3,0,1,60,62,-2,0,0,1819.5
10,8,3,0,2,59,62,-3,0,1,1797.6
10,9,1,0,2,11,14,-3,0,1,2664.5
10,10,1,0,2,13,15,-2,0,1,2368.6
10,11,1,0,2,11,12,-1,0,1,1661.1
10,12,3,0,2,59,64,-5,0,1,1197.8
10,13,2,0,2,39,42,-3,0,1,1575.9
10,14,3,0,1,62,63,-1,0,0,2252.2
10,15,3,0,2,59,63,-4,0,1,2380.8
10,16,3,1,1,67,63,4,0,1,1491.2
10,17,3,1,2,64,62,2,0,0,2121.5
10,18,3,1,1,63,61,2,0,1,2920
10,20,3,1,1,66,64,2,0,1,2395.4
10,21,3,1,2,65,63,2,0,0,2621.9
10,22,3,1,2,61,64,-3,0,1,2856.4
10,23,3,1,1,63,60,3,0,1,1480.9
10,24,3,1,2,61,63,-2,0,1,1768.2
10,25,3,1,2,64,65,-1,0,1,3284.2
10,26,3,1,2,59,62,-3,0,1,1675.8
10,27,3,1,1,67,65,2,0,1,1051.9
10,28,3,1,2,60,62,-2,0,1,1268.4
10,29,3,1,1,66,63,3,0,1,2844.4
10,30,3,1,1,64,61,3,0,1,1373.5
10,31,3,0,2,61,60,1,0,0,2536.1
10,32,2,0,2,37,39,-2,0,1,1356.8
10,34,3,0,2,62,63,-1,0,1,1474.6
10,36,1,0,2,19,14,5,0,0,3070.2
10,37,2,0,2,36,38,-2,0,1,1446.7
10,38,1,0,2,18,14,4,0,0,1143
10,39,1,0,2,14,15,-1,0,1,900.56
10,41,2,0,2,35,37,-2,0,1,1544.9
10,42,1,0,1,15,12,3,0,1,1262.1
10,43,3,0,2,59,64,-5,0,1,813.72
10,44,3,0,1,62,66,-4,0,0,1088.2
10,45,2,0,2,37,36,1,0,0,1071.4
10,46,3,1,2,60,65,-5,0,1,1109
10,47,3,1,2,63,60,3,0,0,2275.3
10,48,3,1,2,64,65,-1,0,1,1035.5
10,49,3,1,2,65,66,-1,0,1,2292.9
10,50,3,1,2,61,64,-3,0,1,1300.5
10,51,3,1,2,65,64,1,0,0,1227
10,52,3,1,2,62,66,-4,0,1,589.33
10,54,3,1,2,60,64,-4,0,1,2060.7
10,55,3,1,1,63,59,4,0,1,2372.7
10,56,3,1,1,66,65,1,0,1,920.44
10,57,3,1,1,64,62,2,0,1,2558.7
10,59,3,1,2,63,67,-4,0,1,804.41
10,60,3,1,1,66,63,3,0,1,767.27
10,61,3,0,1,67,62,5,0,1,729.95
10,62,2,0,2,41,42,-1,0,1,1215.1
10,63,1,0,2,17,15,2,0,0,1537.5
10,64,3,0,2,62,65,-3,0,1,2270
10,65,3,0,1,63,60,3,0,1,2174.6
10,66,3,0,1,62,63,-1,0,0,1899
10,67,1,0,1,12,11,1,0,1,1377.7
10,68,2,0,2,38,39,-1,0,1,916.94
10,69,2,0,1,40,36,4,0,1,987.61
10,71,2,0,2,35,39,-4,0,1,1440.7
10,73,1,0,2,14,11,3,0,0,1836.6
10,74,1,0,1,17,18,-1,0,0,1701.9
10,75,2,0,1,41,36,5,0,1,1180.5
10,76,2,1,2,42,41,1,0,0,1225
10,77,2,1,2,37,40,-3,0,1,850.08
10,78,2,1,2,38,43,-5,0,1,834.44
10,79,2,1,2,41,42,-1,0,1,956.1
10,80,2,1,2,41,40,1,0,0,1353.2
10,81,2,1,2,38,37,1,0,0,2805.9
10,82,2,1,2,37,40,-3,0,1,848.08
10,83,2,1,2,37,39,-2,0,1,704.8
10,84,2,1,2,40,41,-1,0,1,2440.4
10,85,2,1,1,43,39,4,0,1,953.03
10,86,2,1,2,37,39,-2,0,1,1933.8
10,87,2,1,1,42,41,1,0,1,1059.2
10,88,2,1,1,40,37,3,0,1,755.97
10,89,2,1,2,39,42,-3,0,1,736.82
10,90,2,1,1,42,39,3,0,1,1205.5
10,91,3,0,2,63,66,-3,0,1,1012.6
10,92,3,0,2,60,59,1,0,0,2526.1
10,93,2,0,1,40,37,3,0,1,963.9
10,94,1,0,2,11,15,-4,0,1,2296.2
10,95,1,0,2,13,17,-4,0,1,1078.4
10,96,1,0,2,16,12,4,0,0,997.6
10,97,1,0,2,19,16,3,0,0,2584.7
10,98,3,0,1,64,66,-2,0,0,2939.9
10,99,3,0,1,64,63,1,0,1,2177.3
10,100,3,0,2,61,63,-2,0,1,2845.4
10,101,2,0,2,40,43,-3,0,1,1078
10,102,1,0,1,19,15,4,0,1,1484.9
10,103,2,0,1,39,41,-2,0,0,1276.8
10,104,2,0,1,43,40,3,0,1,1436.6
10,105,2,0,1,40,39,1,0,1,2709.8
10,106,3,1,2,63,67,-4,0,1,1109.4
10,107,3,1,2,66,65,1,0,0,795.24
10,108,3,1,1,64,61,3,0,1,2102
10,109,3,1,2,61,64,-3,0,1,1764.7
10,110,3,1,2,62,61,1,0,0,1560.5
10,111,3,1,2,61,63,-2,0,1,1517.7
10,112,3,1,2,63,66,-3,0,1,732.03
10,113,3,1,2,63,64,-1,0,1,1769.1
10,114,3,1,2,61,66,-5,0,1,1477.1
10,115,3,1,1,67,64,3,0,1,1717.3
10,116,3,1,2,62,67,-5,0,1,811.24
10,117,3,1,1,66,63,3,0,1,989.03
10,118,3,1,1,67,63,4,0,1,1512.8
10,119,3,1,1,66,62,4,0,1,1342.8
10,120,3,1,1,64,61,3,0,1,1268.4
10,121,2,0,2,38,42,-4,0,1,1502.9
10,122,2,0,2,39,41,-2,0,1,1469
10,123,1,0,1,16,13,3,0,1,2396.5
10,124,1,0,2,11,13,-2,0,1,839.3
10,125,3,0,2,59,63,-4,0,1,1457.3
10,126,2,0,2,40,42,-2,0,1,1777.4
10,127,1,0,2,11,16,-5,0,1,3109.7
10,128,3,0,1,64,62,2,0,1,2324.6
10,129,3,0,1,61,63,-2,0,0,1842.9
10,130,1,0,2,14,17,-3,0,1,1476.3
10,131,2,0,1,42,38,4,0,1,1316.5
10,132,3,0,1,63,65,-2,0,0,2306.1
10,133,2,0,1,41,39,2,0,1,1192.7
10,134,3,0,2,61,63,-2,0,1,2756.2
10,135,1,0,2,13,14,-1,0,1,2593.1
10,136,1,1,2,13,16,-3,0,1,1891
10,137,1,1,2,14,19,-5,0,1,2713.6
10,138,1,1,2,12,16,-4,0,1,1535.9
10,139,1,1,2,16,14,2,0,0,3085.1
10,140,1,1,2,18,17,1,0,0,1140.6
10,141,1,1,2,11,14,-3,0,1,2025.7
10,142,1,1,2,16,17,-1,0,1,891.96
10,143,1,1,2,13,18,-5,0,1,1299
10,144,1,1,1,15,12,3,0,1,1465.9
10,145,1,1,2,17,18,-1,0,1,1938.2
10,146,1,1,1,15,11,4,0,1,1455.5
10,147,1,1,1,17,15,2,0,1,2032.1
10,148,1,1,1,17,16,1,0,1,2017.5
10,149,1,1,1,18,15,3,0,1,2051.3
10,150,1,1,1,16,13,3,0,1,1628.1
10,151,1,0,2,15,14,1,0,0,1621.3
10,152,3,0,2,63,62,1,0,0,1630.8
10,153,1,0,2,16,18,-2,0,1,1504.3
10,154,2,0,2,36,38,-2,0,1,902.86
10,155,3,0,2,64,67,-3,0,1,1030.7
10,156,1,0,2,15,17,-2,0,1,1487
10,157,3,0,2,63,65,-2,0,1,1454.5
10,158,2,0,2,36,35,1,0,0,1367.3
10,159,2,0,1,38,39,-1,0,0,1251
10,160,1,0,2,16,17,-1,0,1,2235.8
10,161,3,0,1,65,63,2,0,1,1437.7
10,162,2,0,2,37,39,-2,0,1,1606.4
10,163,3,0,1,67,63,4,0,1,1689.6
10,164,2,0,2,35,39,-4,0,1,2032.9
10,165,1,0,2,16,19,-3,0,1,1018
10,166,1,1,2,15,19,-4,0,1,1495.8
10,167,1,1,1,16,13,3,0,1,2190.2
10,168,1,1,2,19,15,4,0,0,881.51
10,169,1,1,2,15,18,-3,0,1,864.78
10,170,1,1,2,13,16,-3,0,1,2089.3
10,171,1,1,2,14,18,-4,0,1,679.83
10,172,1,1,2,17,16,1,0,0,711.51
10,173,1,1,2,12,17,-5,0,1,765.94
10,174,1,1,1,19,16,3,0,1,794.4
10,175,1,1,1,18,16,2,0,1,2029.9
10,176,1,1,1,17,15,2,0,1,2486.6
10,177,1,1,1,16,13,3,0,1,1093.8
10,178,1,1,2,11,14,-3,0,1,1621.3
10,179,1,1,2,13,15,-2,0,1,2127.5
10,180,1,1,1,14,13,1,0,1,2093.8
10,181,3,0,2,63,65,-2,0,1,1044.5
10,182,2,0,1,42,38,4,0,1,861.22
10,183,1,0,2,11,15,-4,0,1,2149.3
10,184,1,0,2,14,15,-1,0,1,1491
10,185,1,0,1,14,18,-4,0,0,825.6
10,186,1,0,2,15,17,-2,0,1,1699.7
10,187,2,0,2,37,41,-4,0,1,1466.3
10,188,3,0,2,60,62,-2,0,1,994.23
10,189,2,0,1,38,35,3,0,1,1237.5
10,190,3,0,2,61,65,-4,0,1,830.35
10,191,1,0,1,17,14,3,0,1,2080.2
10,192,2,0,2,35,38,-3,0,1,3087.4
10,193,2,0,1,43,38,5,0,1,758.53
10,194,3,0,1,66,62,4,0,1,1275.3
10,195,3,0,2,59,60,-1,0,1,1723.2
10,196,1,1,1,18,15,3,0,1,918.98
10,197,1,1,2,13,15,-2,0,1,732.54
10,198,1,1,1,19,17,2,0,1,561.62
10,199,1,1,1,19,15,4,0,1,597.88
10,200,1,1,2,13,16,-3,0,1,880.5
10,201,1,1,2,15,12,3,0,0,1983.4
10,202,1,1,2,12,14,-2,0,1,1699.1
10,203,1,1,2,15,19,-4,0,1,673.89
10,204,1,1,1,18,17,1,0,1,873.94
10,205,1,1,2,16,17,-1,0,1,866.51
10,206,1,1,2,15,16,-1,0,1,833.89
10,207,1,1,1,15,13,2,0,1,1195.6
10,208,1,1,2,16,14,2,0,0,1782.1
10,209,1,1,1,18,15,3,0,1,777.43
10,210,1,1,1,18,14,4,0,1,517.83
10,211,2,0,1,41,38,3,0,1,1809.7
10,212,2,0,2,37,39,-2,0,1,931.87
10,213,3,0,2,59,64,-5,0,1,1817.8
10,214,2,0,2,35,36,-1,0,1,1491.1
10,215,1,0,2,11,16,-5,0,1,1458.7
10,216,2,0,2,37,38,-1,0,1,1699.7
10,217,3,0,1,66,62,4,0,1,1602
10,218,3,0,2,65,60,5,0,0,1860.9
10,219,1,0,1,16,15,1,0,1,1398.1
10,220,3,0,2,61,62,-1,0,1,1777
10,221,1,0,2,14,15,-1,0,1,1132.7
10,222,1,0,2,12,14,-2,0,1,1153.7
10,223,2,0,2,39,41,-2,0,1,1326.7
10,224,1,0,2,12,14,-2,0,1,1836.7
10,225,3,0,1,65,62,3,0,1,1502.7
10,226,2,1,1,40,37,3,0,1,1996.2
10,227,2,1,1,42,39,3,0,1,695.13
10,228,2,1,2,41,39,2,0,0,693.55
10,229,2,1,2,39,40,-1,0,1,1524.7
10,230,2,1,1,43,40,3,0,1,1019.2
10,231,2,1,1,40,37,3,0,1,645.09
10,232,2,1,2,36,40,-4,0,1,805.67
10,233,2,1,2,37,40,-3,0,1,1048.4
10,234,2,1,1,42,39,3,0,1,1185.5
10,235,2,1,1,40,38,2,0,1,957.01
10,236,2,1,1,41,39,2,0,1,1905.5
10,237,2,1,1,39,35,4,0,1,1311.9
10,238,2,1,2,36,41,-5,0,1,637.84
10,239,2,1,1,43,39,4,0,1,647.36
10,240,2,1,1,41,40,1,0,1,2136
10,241,3,0,1,62,59,3,0,1,1634.4
10,242,1,0,1,13,15,-2,0,0,1387.4
10,243,1,0,1,13,15,-2,0,0,1063.1
10,244,1,0,2,11,16,-5,0,1,1166.8
10,245,2,0,2,35,40,-5,0,1,987.18
10,246,2,0,2,35,40,-5,0,1,966.46
10,247,3,0,1,64,61,3,0,1,1682.4
10,248,1,0,1,16,14,2,0,1,1729.8
10,249,3,0,1,64,60,4,0,1,1215.2
10,250,3,0,2,59,61,-2,0,1,2049.1
10,251,2,0,1,43,39,4,0,1,681.75
10,252,3,0,1,67,64,3,0,1,1393.4
10,253,2,0,2,40,38,2,0,0,2085
10,254,1,0,2,17,12,5,0,0,1076.1
10,255,2,0,2,40,41,-1,0,1,1795.7
10,256,2,1,2,40,38,2,0,0,1463.4
10,257,2,1,2,35,38,-3,0,1,1726.9
10,258,2,1,1,42,40,2,0,1,1468.5
10,259,2,1,2,35,38,-3,0,1,1429.1
10,260,2,1,2,36,38,-2,0,1,822.27
10,261,2,1,2,38,42,-4,0,1,784.17
10,262,2,1,1,39,37,2,0,1,1307.8
10,263,2,1,1,42,38,4,0,1,834.38
10,264,2,1,2,37,42,-5,0,1,851.87
10,265,2,1,2,39,43,-4,0,1,596.36
10,266,2,1,1,39,36,3,0,1,783.38
10,267,2,1,1,39,43,-4,0,0,786.51
10,268,2,1,1,43,41,2,0,1,709.63
10,269,2,1,1,39,36,3,0,1,1340.2
10,270,2,1,2,40,41,-1,0,1,666.16
12,1,3,1,2,63,60,3,0,0,1199.1
12,2,3,1,1,63,59,4,0,1,990.24
12,3,3,1,1,67,64,3,0,1,1178.8
12,4,3,1,1,66,63,3,0,1,1453.9
12,5,3,1,2,64,65,-1,0,1,950.54
12,6,3,1,2,60,65,-5,0,1,1139.5
12,7,3,1,1,67,65,2,0,1,960.57
12,8,3,1,1,64,62,2,0,1,1732.5
12,9,3,1,2,60,64,-4,0,1,1225.9
12,10,3,1,1,66,65,1,0,1,1028.5
12,11,3,1,1,66,62,4,0,1,1693.5
12,12,3,1,1,66,63,3,0,1,1012.6
12,13,3,1,1,65,64,1,0,1,1583.2
12,14,3,1,2,66,63,3,0,0,2050.5
12,15,3,1,1,65,63,2,0,1,1627.5
12,16,2,0,1,38,39,-1,0,0,1166.7
12,17,3,0,1,64,60,4,0,1,730.46
12,18,1,0,2,13,15,-2,0,1,1128.4
12,19,1,0,2,14,11,3,0,0,1413.3
12,20,1,0,2,11,15,-4,0,1,935.18
12,21,2,0,1,38,39,-1,0,0,1356.6
12,22,2,0,2,40,39,1,0,0,1145.8
12,23,1,0,2,17,18,-1,0,1,1294.1
12,24,3,0,2,59,64,-5,0,1,1181.7
12,25,2,0,2,39,41,-2,0,1,1473.3
12,26,3,0,2,62,65,-3,0,1,1273.6
12,27,1,0,1,15,14,1,0,1,1121.3
12,28,2,0,2,35,38,-3,0,1,1487.2
12,29,3,0,1,60,59,1,0,1,1710.5
12,30,3,0,1,59,63,-4,0,0,1221.6
12,31,3,1,2,61,64,-3,0,1,1433.7
12,32,3,1,2,62,66,-4,0,1,850.66
12,33,3,1,2,63,66,-3,0,1,803.23
12,34,3,1,2,59,62,-3,0,1,1446.2
12,35,3,1,1,62,61,1,0,1,1206.9
12,36,3,1,2,61,63,-2,0,1,1257.5
12,37,3,1,2,65,66,-1,0,1,1161.6
12,38,3,1,1,65,64,1,0,1,1230
12,39,3,1,1,64,61,3,0,1,1311.1
12,40,3,1,2,61,63,-2,0,1,1541.1
12,41,3,1,1,60,62,-2,0,0,1362.4
12,42,3,1,1,64,65,-1,0,0,1254.2
12,43,3,1,1,67,63,4,0,1,983.74
12,44,3,1,1,59,62,-3,0,0,1362.9
12,45,3,1,1,63,61,2,0,1,1526.4
12,46,2,0,1,37,36,1,0,1,985.72
12,47,3,0,1,66,62,4,0,1,836.46
12,48,2,0,2,40,41,-1,0,1,1405.6
12,49,1,0,2,11,15,-4,0,1,1072.5
12,50,3,0,2,62,66,-4,0,1,1424.6
12,51,1,0,2,14,15,-1,0,1,1354.4
12,52,3,0,2,59,63,-4,0,1,1391.3
12,53,2,0,1,43,39,4,0,1,1434.8
12,54,1,0,1,18,14,4,0,1,1436.3
12,55,2,0,2,35,39,-4,0,1,1933
12,56,3,0,2,63,65,-2,0,1,1235
12,57,2,0,2,35,40,-5,0,1,1300
12,58,3,0,2,59,64,-5,0,1,1147.1
12,59,1,0,1,15,12,3,0,1,1127.4
12,60,1,0,2,17,15,2,0,0,925.17
12,61,1,1,1,18,15,3,0,1,1520.1
12,62,1,1,1,18,17,1,0,1,1189.8
12,63,1,1,1,15,11,4,0,1,1344.9
12,64,1,1,1,17,15,2,0,1,1590
12,65,1,1,1,15,13,2,0,1,1529.1
12,66,1,1,1,17,15,2,0,1,1078.5
12,67,1,1,1,16,13,3,0,1,1181.8
12,68,1,1,2,15,19,-4,0,1,785.6
12,69,1,1,2,13,18,-5,0,1,940.89
12,70,1,1,2,18,15,3,0,0,1274
12,71,1,1,1,18,14,4,0,1,1042.9
12,72,1,1,1,17,16,1,0,1,1204
12,73,1,1,2,17,18,-1,0,1,1150.4
12,74,1,1,2,18,17,1,0,0,1171.3
12,75,1,1,1,15,12,3,0,1,1367.8
12,76,1,0,2,14,17,-3,0,1,1651.4
12,77,3,0,1,61,62,-1,0,0,1459.9
12,78,1,0,2,14,18,-4,0,1,860.46
12,79,3,0,1,67,62,5,0,1,1021.4
12,80,2,0,1,39,41,-2,0,0,1191.1
12,81,2,0,2,36,35,1,0,0,1738.9
12,82,1,0,2,13,15,-2,0,1,1248.5
12,83,2,0,1,41,38,3,0,1,1592.6
12,84,2,0,2,40,43,-3,0,1,740.32
12,85,3,0,2,61,63,-2,0,1,1586.5
12,86,3,0,1,62,59,3,0,1,1533.2
12,87,3,0,1,63,62,1,0,1,1538.7
12,88,1,0,2,13,14,-1,0,1,1887.7
12,89,1,0,2,16,19,-3,0,1,1198.9
12,90,2,0,2,37,39,-2,0,1,2010
12,91,1,1,2,11,14,-3,0,1,1003.2
12,92,1,1,2,12,16,-4,0,1,933.03
12,93,1,1,1,16,14,2,0,1,938.83
12,94,1,1,1,14,13,1,0,1,1408.4
12,95,1,1,2,19,15,4,0,0,1370.6
12,96,1,1,1,16,13,3,0,1,1374.8
12,97,1,1,1,19,15,4,0,1,1411
12,98,1,1,2,13,16,-3,0,1,1430
12,99,1,1,1,18,15,3,0,1,1095.2
12,100,1,1,1,17,16,1,0,1,1582.5
12,101,1,1,2,16,17,-1,0,1,1865.8
12,102,1,1,1,19,17,2,0,1,1161.6
12,103,1,1,2,15,16,-1,0,1,1829.9
12,104,1,1,2,13,16,-3,0,1,1550.6
12,105,1,1,2,18,16,2,0,0,1587.8
12,106,1,0,2,11,13,-2,0,1,1325.3
12,107,2,0,1,41,36,5,0,1,1355.3
12,108,1,0,1,16,12,4,0,1,791.55
12,109,3,0,2,59,61,-2,0,1,1403.1
12,110,3,0,1,65,62,3,0,1,1517.4
12,111,2,0,1,39,42,-3,0,0,1459.8
12,112,1,0,1,13,12,1,0,1,1620.5
12,113,2,0,2,37,39,-2,0,1,1246.7
12,114,1,0,1,19,14,5,0,1,1439.3
12,115,3,0,1,64,61,3,0,1,1056.7
12,116,2,0,1,38,42,-4,0,0,1729.7
12,117,1,0,2,15,17,-2,0,1,1751
12,118,3,0,1,63,60,3,0,1,2011.3
12,119,3,0,1,65,63,2,0,1,1741.6
12,120,2,0,1,42,38,4,0,1,1603.3
12,121,1,1,1,19,16,3,0,1,2074.6
12,122,1,1,1,16,14,2,0,1,1834.3
12,123,1,1,2,14,18,-4,0,1,1339.7
12,124,1,1,2,15,12,3,0,0,1905
12,125,1,1,2,12,14,-2,0,1,2063.8
12,126,1,1,2,12,17,-5,0,1,1479.8
12,127,1,1,2,14,19,-5,0,1,1471.1
12,128,1,1,2,16,17,-1,0,1,1591.4
12,129,1,1,2,13,15,-2,0,1,1674.9
12,130,1,1,1,15,19,-4,0,0,1594.8
12,131,1,1,2,11,14,-3,0,1,2149.4
12,132,1,1,1,16,13,3,0,1,1050.5
12,133,1,1,2,13,15,-2,0,1,874.87
12,134,1,1,2,13,16,-3,0,1,1851.3
12,135,1,1,2,15,18,-3,0,1,1755.9
12,136,1,0,2,11,14,-3,0,1,1261.7
12,137,1,0,2,12,14,-2,0,1,2158
12,138,2,0,2,37,38,-1,0,1,1562.5
12,139,3,0,2,63,65,-2,0,1,1766.7
12,140,2,0,1,43,38,5,0,1,1410.9
12,141,2,0,2,40,37,3,0,0,2421.5
12,142,3,0,2,63,65,-2,0,1,1479.4
12,143,1,0,2,11,12,-1,0,1,2078.9
12,145,1,0,1,19,15,4,0,1,1846.5
12,146,2,0,1,40,38,2,0,1,2559
12,147,3,0,2,60,62,-2,0,1,1387.7
12,148,3,0,2,61,63,-2,0,1,1879.3
12,149,1,0,2,11,16,-5,0,1,2399.1
12,150,3,0,2,59,64,-5,0,1,1705.5
12,151,2,1,2,39,43,-4,0,1,1262.2
12,152,2,1,2,37,42,-5,0,1,1053.6
12,153,2,1,1,43,39,4,0,1,934.28
12,154,2,1,1,42,41,1,0,1,2051.1
12,155,2,1,2,39,40,-1,0,1,1732.7
12,156,2,1,2,36,40,-4,0,1,1121.5
12,157,2,1,1,41,42,-1,0,0,1319.6
12,158,2,1,1,39,35,4,0,1,1822.1
12,159,2,1,2,41,40,1,0,0,2527.6
12,160,2,1,1,43,39,4,0,1,2285.6
12,161,2,1,1,42,39,3,0,1,1677.8
12,162,2,1,1,42,39,3,0,1,1661.6
12,163,2,1,1,41,39,2,0,1,1453.6
12,164,2,1,1,42,38,4,0,1,982.77
12,165,2,1,2,38,43,-5,0,1,873.77
12,166,1,0,1,17,14,3,0,1,1046
12,167,2,0,1,39,36,3,0,1,1398.7
12,168,3,0,2,65,66,-1,0,1,1217.1
12,169,3,0,2,61,65,-4,0,1,1555.3
12,170,2,0,2,35,40,-5,0,1,967.76
12,171,1,0,2,13,17,-4,0,1,1908
12,172,1,0,2,16,17,-1,0,1,1562.9
12,173,1,0,1,19,16,3,0,1,1926.8
12,174,2,0,2,35,39,-4,0,1,1476.9
12,175,3,0,2,64,67,-3,0,1,772.47
12,176,3,0,1,67,63,4,0,1,680.75
12,177,3,0,1,62,63,-1,0,0,1184.4
12,178,1,0,1,17,12,5,0,1,1388.3
12,179,2,0,2,37,39,-2,0,1,1751
12,180,2,0,1,42,38,4,0,1,1523.8
12,181,2,1,1,39,36,3,0,1,1940.9
12,182,2,1,2,42,40,2,0,0,1218
12,183,2,1,1,39,37,2,0,1,1324.2
12,184,2,1,1,40,38,2,0,1,1729.7
12,185,2,1,1,43,41,2,0,1,2351.4
12,186,2,1,2,37,40,-3,0,1,1620
12,187,2,1,2,37,40,-3,0,1,1870.5
12,188,2,1,1,43,40,3,0,1,1391
12,189,2,1,1,41,40,1,0,1,1721.6
12,191,2,1,1,40,41,-1,0,0,2071.7
12,192,2,1,1,40,37,3,0,1,1983.9
12,193,2,1,2,38,42,-4,0,1,1643
12,194,2,1,2,39,42,-3,0,1,1804.6
12,195,2,1,2,37,39,-2,0,1,1447.3
12,196,2,0,2,41,42,-1,0,1,1591.7
12,197,1,0,2,11,16,-5,0,1,1050.5
12,198,3,0,1,61,60,1,0,1,2043.9
12,200,3,0,2,61,63,-2,0,1,1182.6
12,201,2,0,2,40,42,-2,0,1,1385.7
12,202,2,0,2,37,41,-4,0,1,1133.2
12,203,1,0,2,16,18,-2,0,1,1626.7
12,204,3,0,1,64,65,-1,0,0,1532.7
12,205,3,0,2,64,66,-2,0,1,1322.1
12,206,3,0,1,66,62,4,0,1,1943.5
12,207,2,0,2,35,36,-1,0,1,2045.3
12,208,1,0,2,15,17,-2,0,1,1934.6
12,209,1,0,2,14,15,-1,0,1,2203.4
12,210,1,0,1,16,14,2,0,1,1926.3
12,211,2,1,2,36,38,-2,0,1,2182.4
12,212,2,1,2,42,41,1,0,0,1793.1
12,213,2,1,2,36,41,-5,0,1,972.62
12,214,2,1,1,40,37,3,0,1,2088.3
12,215,2,1,2,39,43,-4,0,1,1239.2
12,216,2,1,2,37,39,-2,0,1,2377.2
12,217,2,1,2,37,40,-3,0,1,1220.7
12,218,2,1,2,35,38,-3,0,1,1807.1
12,219,2,1,1,42,39,3,0,1,1625.6
12,220,2,1,1,39,36,3,0,1,1811.4
12,221,2,1,2,35,38,-3,0,1,2101.2
12,222,2,1,2,38,37,1,0,0,2228.6
12,223,2,1,2,41,39,2,0,0,1549.6
12,224,2,1,1,40,38,2,0,1,1562.5
12,225,2,1,1,40,37,3,0,1,1966.2
12,226,1,0,2,14,15,-1,0,1,1320.7
12,227,2,0,1,40,36,4,0,1,1598.8
12,228,2,0,1,41,39,2,0,1,1337.3
12,229,3,0,2,59,60,-1,0,1,1686.4
12,230,3,0,1,65,60,5,0,1,894.44
12,231,3,0,1,64,62,2,0,1,2133.1
12,232,1,0,2,15,18,-3,0,1,1386.9
12,233,1,0,2,12,14,-2,0,1,1470.5
12,234,1,0,2,11,16,-5,0,1,1710.1
12,236,1,0,2,13,15,-2,0,1,1756.3
12,237,2,0,2,36,38,-2,0,1,2561
12,238,3,0,1,67,64,3,0,1,894.32
12,239,2,0,1,43,40,3,0,1,1317.2
12,240,2,0,2,38,41,-3,0,1,1306.3
12,241,3,1,2,62,67,-5,0,1,952.97
12,242,3,1,2,63,67,-4,0,1,661.87
12,243,3,1,1,66,64,2,0,1,1765.5
12,244,3,1,1,64,62,2,0,1,2473.9
12,245,3,1,1,65,63,2,0,1,1769.7
12,246,3,1,2,63,67,-4,0,1,877.76
12,247,3,1,2,63,64,-1,0,1,1717.8
12,248,3,1,2,61,66,-5,0,1,1419.6
12,249,3,1,2,66,65,1,0,0,1230.1
12,250,3,1,1,63,60,3,0,1,1199.4
12,251,3,1,1,64,61,3,0,1,938.05
12,252,3,1,1,67,63,4,0,1,1367.9
12,253,3,1,1,64,61,3,0,1,1483.9
12,254,3,1,2,61,64,-3,0,1,1002.9
12,255,3,1,2,61,64,-3,0,1,1077.4
12,256,1,0,1,16,15,1,0,1,1912.1
12,257,3,0,2,60,62,-2,0,1,1317.9
12,258,2,0,2,36,38,-2,0,1,1739.6
12,259,3,0,2,64,63,1,0,0,1169.3
12,260,3,0,2,63,66,-3,0,1,885.18
12,261,3,0,2,62,63,-1,0,1,1908.8
12,262,3,0,2,62,63,-1,0,1,1667
12,263,2,0,2,39,41,-2,0,1,1835.2
12,264,1,0,1,16,13,3,0,1,1133.1
12,265,2,0,1,39,38,1,0,1,2058.1
12,267,1,0,1,18,14,4,0,1,1524.8
12,268,2,0,2,35,40,-5,0,1,1354.9
12,269,1,0,2,15,17,-2,0,1,1608.2
13,1,1,1,1,15,11,4,0,1,2317.8
13,2,1,1,2,11,14,-3,0,1,2736.5
13,3,1,1,2,14,13,1,0,0,3799.3
13,4,1,1,2,13,15,-2,0,1,2937.7
13,5,1,1,1,16,13,3,0,1,2310.8
13,6,1,1,1,18,16,2,0,1,2053.5
13,7,1,1,1,18,17,1,0,1,2061.6
13,8,1,1,2,15,18,-3,0,1,1422.4
13,9,1,1,2,12,14,-2,0,1,2584.3
13,10,1,1,2,13,16,-3,0,1,1707.2
13,11,1,1,1,17,16,1,0,1,1906.2
13,12,1,1,2,11,14,-3,0,1,1257.2
13,13,1,1,1,15,13,2,0,1,2081.3
13,14,1,1,2,12,16,-4,0,1,1288.5
13,15,1,1,1,18,15,3,0,1,1759.5
13,16,3,0,2,65,66,-1,0,1,3540.6
13,17,1,0,2,14,17,-3,0,1,2802
13,18,2,0,2,35,39,-4,0,1,1484.6
13,19,1,0,2,11,13,-2,0,1,1236.1
13,20,2,0,2,39,42,-3,0,1,805.36
13,21,3,0,2,60,59,1,0,0,4392.3
13,22,2,0,2,41,42,-1,0,1,1011.2
13,23,1,0,2,17,18,-1,0,1,909.55
13,24,2,0,2,39,38,1,0,0,1611.9
13,25,3,0,1,66,62,4,0,1,2614.5
13,27,1,0,1,16,15,1,0,1,1474.5
13,28,2,0,2,37,38,-1,0,1,2217.8
13,29,3,0,1,62,63,-1,0,0,1708.3
13,30,1,0,2,14,15,-1,0,1,1889.8
13,31,2,1,1,39,36,3,0,1,2182.3
13,32,2,1,2,37,39,-2,0,1,1473.1
13,33,2,1,2,36,38,-2,0,1,1985.1
13,34,2,1,2,36,40,-4,0,1,1292.6
13,35,2,1,1,42,41,1,0,1,1931.9
13,36,2,1,2,38,42,-4,0,1,1417.3
13,37,2,1,1,42,38,4,0,1,2027.2
13,38,2,1,2,42,41,1,0,0,1925.3
13,39,2,1,2,37,40,-3,0,1,2731.1
13,40,2,1,2,37,42,-5,0,1,1040.2
13,41,2,1,1,42,39,3,0,1,1137.6
13,42,2,1,2,41,40,1,0,0,1735.2
13,43,2,1,1,42,39,3,0,1,2012.9
13,44,2,1,2,37,39,-2,0,1,1350.5
13,45,2,1,1,40,37,3,0,1,1419.6
13,46,2,0,1,42,38,4,0,1,1562.1
13,47,3,0,2,62,63,-1,0,1,1413.5
13,48,3,0,2,62,59,3,0,0,2351.9
13,49,1,0,2,11,16,-5,0,1,2452.4
13,50,2,0,1,39,36,3,0,1,1444.9
13,51,1,0,2,13,15,-2,0,1,1998.2
13,52,3,0,2,61,63,-2,0,1,2616.8
13,53,1,0,2,19,14,5,0,0,1018.6
13,54,2,0,2,35,36,-1,0,1,2620.3
13,55,2,0,1,40,37,3,0,1,1998.4
13,56,1,0,1,18,14,4,0,1,3401.4
13,57,3,0,1,63,60,3,0,1,3611.7
13,58,2,0,2,35,40,-5,0,1,4037.5
13,59,3,0,1,65,60,5,0,1,2311.4
13,60,1,0,2,11,15,-4,0,1,3213.2
13,62,2,1,2,36,41,-5,0,1,1533
13,63,2,1,2,39,40,-1,0,1,3386.8
13,64,2,1,1,39,36,3,0,1,2710
13,65,2,1,1,42,40,2,0,1,1603.8
13,66,2,1,1,41,39,2,0,1,2318.4
13,67,2,1,2,39,43,-4,0,1,1076.2
13,68,2,1,2,41,40,1,0,0,2884.3
13,69,2,1,2,41,42,-1,0,1,2907.5
13,70,2,1,2,37,40,-3,0,1,1586.5
13,71,2,1,1,43,41,2,0,1,917.88
13,72,2,1,1,38,37,1,0,1,3204.1
13,73,2,1,1,40,37,3,0,1,918.17
13,74,2,1,2,40,41,-1,0,1,1628.5
13,75,2,1,1,39,35,4,0,1,1278.1
13,76,3,0,2,63,65,-2,0,1,1672.3
13,77,2,0,2,38,42,-4,0,1,2184.7
13,78,2,0,1,41,39,2,0,1,1763.6
13,79,3,0,2,62,63,-1,0,1,2703.5
13,80,2,0,1,41,36,5,0,1,1286.6
13,81,3,0,2,61,62,-1,0,1,3149.4
13,82,3,0,2,62,65,-3,0,1,1482.1
13,83,3,0,1,63,62,1,0,1,3297.7
13,84,1,0,2,15,17,-2,0,1,2832.5
13,85,2,0,2,37,39,-2,0,1,3602.1
13,86,1,0,2,15,18,-3,0,1,1668.7
13,87,1,0,1,17,12,5,0,1,1524.3
13,88,1,0,1,18,14,4,0,1,1946.8
13,89,2,0,2,35,39,-4,0,1,3703.2
13,90,1,0,1,14,15,-1,0,0,3686.3
13,91,1,1,1,19,15,4,0,1,2283.7
13,92,1,1,1,18,14,4,0,1,1987.3
13,93,1,1,2,14,18,-4,0,1,2854.4
13,94,1,1,2,13,18,-5,0,1,3879
13,95,1,1,1,18,15,3,0,1,2022.5
13,96,1,1,2,15,16,-1,0,1,2455.8
13,97,1,1,2,12,17,-5,0,1,2648.4
13,98,1,1,1,15,12,3,0,1,4313.4
13,99,1,1,1,16,13,3,0,1,2528
13,100,1,1,1,17,15,2,0,1,3182
13,101,1,1,2,13,15,-2,0,1,3369.2
13,102,1,1,2,15,19,-4,0,1,1661
13,103,1,1,2,13,16,-3,0,1,909.77
13,104,1,1,1,15,12,3,0,1,1308.6
13,105,1,1,1,18,17,1,0,1,1770.9
13,106,2,0,1,38,39,-1,0,0,2102.7
13,107,1,0,1,15,14,1,0,1,3037.1
13,108,3,0,1,67,62,5,0,1,2214.1
13,109,3,0,2,59,64,-5,0,1,2608.8
13,110,2,0,2,35,40,-5,0,1,2739.1
13,111,2,0,2,35,38,-3,0,1,3008.4
13,112,2,0,1,43,38,5,0,1,1427.6
13,113,1,0,2,16,19,-3,0,1,2668.3
13,114,1,0,2,11,12,-1,0,1,1700.3
13,115,3,0,1,67,64,3,0,1,1427.2
13,116,3,0,2,61,60,1,0,0,1596.7
13,117,3,0,1,64,61,3,0,1,2367.4
13,118,2,0,1,36,38,-2,0,0,3834.9
13,119,1,0,2,19,16,3,0,0,3484.6
13,121,3,1,1,67,65,2,0,1,855.63
13,122,3,1,1,66,63,3,0,1,1479.8
13,123,3,1,1,66,65,1,0,1,1495.2
13,124,3,1,2,59,62,-3,0,1,1646.2
13,125,3,1,2,61,64,-3,0,1,1406.6
13,126,3,1,1,64,61,3,0,1,1273.1
13,127,3,1,2,64,65,-1,0,1,2552.8
13,128,3,1,2,66,64,2,0,0,1693.8
13,129,3,1,2,63,67,-4,0,1,956.5
13,130,3,1,2,62,67,-5,0,1,1088.6
13,131,3,1,2,61,64,-3,0,1,1904.1
13,132,3,1,2,61,63,-2,0,1,1167.4
13,133,3,1,1,67,63,4,0,1,1219
13,134,3,1,1,64,61,3,0,1,1469.3
13,135,3,1,2,61,63,-2,0,1,2493
13,136,2,0,2,35,40,-5,0,1,1437.6
13,137,2,0,2,39,41,-2,0,1,1310.4
13,138,3,0,2,60,62,-2,0,1,1781.4
13,139,3,0,2,63,65,-2,0,1,1673.3
13,140,1,0,2,11,16,-5,0,1,1736.8
13,141,1,0,2,11,14,-3,0,1,1326
13,142,2,0,2,37,39,-2,0,1,1820.1
13,143,1,0,1,13,14,-1,0,0,2270.4
13,144,2,0,2,39,41,-2,0,1,2878.6
13,145,1,0,2,11,16,-5,0,1,1766.2
13,146,3,0,2,59,63,-4,0,1,1969.7
13,147,1,0,2,19,15,4,0,0,2685.5
13,148,3,0,2,59,62,-3,0,1,1829.1
13,149,2,0,1,42,38,4,0,1,2950.7
13,150,3,0,2,64,66,-2,0,1,2075.1
13,151,3,1,1,66,63,3,0,1,1301.1
13,152,3,1,1,63,59,4,0,1,1307.9
13,153,3,1,2,63,66,-3,0,1,993.85
13,154,3,1,2,65,64,1,0,0,3013.2
13,155,3,1,2,61,66,-5,0,1,1079.4
13,156,3,1,2,63,64,-1,0,1,2638.8
13,157,3,1,1,65,63,2,0,1,2519.8
13,158,3,1,2,60,64,-4,0,1,958.18
13,159,3,1,1,64,61,3,0,1,1634.7
13,160,3,1,2,62,61,1,0,0,1891.9
13,161,3,1,2,61,64,-3,0,1,2331.3
13,162,3,1,2,64,65,-1,0,1,1504.3
13,163,3,1,1,67,63,4,0,1,831.56
13,164,3,1,2,63,67,-4,0,1,976.53
13,165,3,1,2,64,62,2,0,0,2300.5
13,166,3,0,2,64,67,-3,0,1,2578.6
13,167,3,0,2,59,60,-1,0,1,2933.9
13,168,3,0,1,64,62,2,0,1,2251.4
13,169,3,0,2,59,64,-5,0,1,1516.2
13,170,1,0,2,12,11,1,0,0,2218.6
13,171,2,0,2,37,39,-2,0,1,2115.5
13,172,2,0,1,43,39,4,0,1,1449.7
13,173,3,0,1,64,60,4,0,1,1634.6
13,174,1,0,2,15,17,-2,0,1,2531.8
13,175,1,0,2,16,18,-2,0,1,2145.3
13,176,1,0,1,16,13,3,0,1,1245.9
13,177,2,0,2,36,38,-2,0,1,2215.1
13,178,2,0,2,35,37,-2,0,1,2729.3
13,179,2,0,1,38,35,3,0,1,3398
13,180,1,0,1,14,11,3,0,1,2568.8
13,181,3,1,2,65,66,-1,0,1,2083.1
13,182,3,1,1,63,60,3,0,1,1873.8
13,183,3,1,2,60,65,-5,0,1,1186.2
13,184,3,1,1,66,63,3,0,1,1589.4
13,185,3,1,1,65,63,2,0,1,1632.6
13,186,3,1,2,64,62,2,0,0,2377.8
13,187,3,1,2,66,65,1,0,0,1349.2
13,188,3,1,2,62,66,-4,0,1,770.12
13,189,3,1,1,63,61,2,0,1,2206
13,190,3,1,1,65,64,1,0,1,1751.8
13,191,3,1,1,66,62,4,0,1,1684.7
13,192,3,1,2,60,62,-2,0,1,2484.4
13,193,3,1,2,59,62,-3,0,1,1979.8
13,194,3,1,1,63,60,3,0,1,1326.6
13,195,3,1,1,67,64,3,0,1,3237.2
13,196,2,0,2,37,41,-4,0,1,2521.2
13,197,3,0,1,65,63,2,0,1,2655.1
13,198,1,0,1,15,12,3,0,1,1919.9
13,199,2,0,2,36,35,1,0,0,2189.3
13,200,1,0,1,17,14,3,0,1,2048.9
13,201,3,0,2,59,63,-4,0,1,2345.9
13,202,2,0,2,37,36,1,0,0,2390.3
13,203,1,0,2,14,18,-4,0,1,1362.3
13,204,1,0,1,16,12,4,0,1,1853.7
13,205,1,0,2,15,17,-2,0,1,3294.1
13,206,3,0,2,61,63,-2,0,1,2517.5
13,207,2,0,2,40,41,-1,0,1,3892
13,208,3,0,2,63,65,-2,0,1,2875.2
13,209,2,0,2,40,43,-3,0,1,914.75
13,210,3,0,2,59,61,-2,0,1,3001.3
13,211,1,1,2,17,16,1,0,0,2865.8
13,212,1,1,2,17,18,-1,0,1,1522
13,213,1,1,1,16,17,-1,0,0,1558.8
13,214,1,1,1,19,15,4,0,1,1395.6
13,215,1,1,1,16,14,2,0,1,1670.5
13,216,1,1,2,14,19,-5,0,1,782.78
13,217,1,1,1,19,16,3,0,1,1498.4
13,218,1,1,1,16,14,2,0,1,2897
13,219,1,1,2,13,16,-3,0,1,1103.6
13,220,1,1,1,16,13,3,0,1,1726.3
13,221,1,1,1,19,17,2,0,1,907.85
13,222,1,1,1,17,15,2,0,1,3346.5
13,223,1,1,2,15,19,-4,0,1,2847.5
13,224,1,1,2,16,17,-1,0,1,2920.8
13,225,1,1,1,18,15,3,0,1,1902.1
13,226,3,0,2,63,66,-3,0,1,885.03
13,227,1,0,2,13,15,-2,0,1,1828.1
13,228,2,0,1,40,36,4,0,1,846
13,229,1,0,2,12,14,-2,0,1,1622
13,230,3,0,1,66,62,4,0,1,1064.3
13,231,3,0,1,64,65,-1,0,0,2688.2
13,232,1,0,1,13,12,1,0,1,3599.5
13,233,3,0,2,60,62,-2,0,1,3066.3
13,234,3,0,2,62,66,-4,0,1,2058.3
13,235,2,0,1,40,38,2,0,1,3306.9
13,236,2,0,2,38,39,-1,0,1,1401.5
13,237,2,0,2,39,41,-2,0,1,3860.5
13,238,1,0,2,14,15,-1,0,1,1468.2
13,239,1,0,2,16,14,2,0,0,3412.2
13,240,2,0,1,40,39,1,0,1,2614.1
13,241,2,1,1,43,39,4,0,1,824.53
13,242,2,1,1,39,37,2,0,1,1713.8
13,243,2,1,2,38,43,-5,0,1,1103.3
13,244,2,1,1,40,37,3,0,1,2438.7
13,245,2,1,1,42,39,3,0,1,991.9
13,246,2,1,2,35,38,-3,0,1,1339.6
13,247,2,1,2,35,38,-3,0,1,1304.4
13,248,2,1,2,41,39,2,0,0,2007.7
13,249,2,1,2,39,43,-4,0,1,1201.8
13,250,2,1,2,39,42,-3,0,1,868.52
13,251,2,1,1,43,40,3,0,1,1404.5
13,252,2,1,2,40,41,-1,0,1,2470.9
13,253,2,1,2,37,40,-3,0,1,3142.9
13,254,2,1,2,40,38,2,0,0,2028.8
13,255,2,1,1,43,39,4,0,1,694.15
13,256,3,0,2,59,64,-5,0,1,1116
13,257,1,0,2,12,14,-2,0,1,2769.2
13,258,2,0,2,38,39,-1,0,1,2301.6
13,259,1,0,2,13,17,-4,0,1,2139.8
13,260,2,0,2,40,42,-2,0,1,961.23
13,261,3,0,1,67,63,4,0,1,1366.2
13,262,3,0,2,61,63,-2,0,1,2762.3
13,263,2,0,1,43,40,3,0,1,1149.8
13,264,3,0,2,61,65,-4,0,1,2090.4
13,265,2,0,2,38,41,-3,0,1,745.97
13,266,3,0,1,65,62,3,0,1,2118.6
13,267,1,0,2,16,17,-1,0,1,2660.9
13,268,1,0,2,11,15,-4,0,1,1917.2
13,269,2,0,1,41,38,3,0,1,1283.3
13,270,1,0,2,17,15,2,0,0,2162.8
14,1,2,0,2,35,38,-3,0,1,1958.4
14,2,3,0,2,59,60,-1,0,1,2274.5
14,3,1,0,1,17,14,3,0,1,2074.6
14,4,1,0,1,12,14,-2,0,0,2962.7
14,6,2,0,1,39,41,-2,0,0,1255.7
14,7,1,0,1,16,14,2,0,1,2736.6
14,9,2,0,1,42,38,4,0,1,1679.6
14,10,3,0,2,60,62,-2,0,1,1807.2
14,11,1,0,2,11,15,-4,0,1,2961.8
14,12,3,0,1,62,59,3,0,1,1366
14,13,2,0,1,43,38,5,0,1,1593.7
14,14,2,0,1,36,35,1,0,1,1845.2
14,15,3,0,2,61,62,-1,0,1,2558.2
14,16,2,1,1,42,39,3,0,1,1700
14,17,2,1,2,35,38,-3,0,1,2305.8
14,18,2,1,2,37,40,-3,0,1,2177.3
14,19,2,1,2,40,41,-1,0,1,2341.2
14,20,2,1,1,43,40,3,0,1,2234.4
14,21,2,1,1,39,35,4,0,1,2715.5
14,22,2,1,2,38,43,-5,0,1,1273.6
14,23,2,1,2,39,43,-4,0,1,2058.1
14,24,2,1,2,37,39,-2,0,1,1898.4
14,25,2,1,2,39,40,-1,0,1,1745.8
14,26,2,1,1,39,36,3,0,1,2198.7
14,27,2,1,2,38,42,-4,0,1,1000.8
14,28,2,1,2,35,38,-3,0,1,1091.9
14,29,2,1,1,41,39,2,0,1,1018.9
14,30,2,1,2,36,40,-4,0,1,1156.8
14,31,2,0,2,41,42,-1,0,1,1037.7
14,32,2,0,1,40,38,2,0,1,1742.7
14,33,2,0,2,40,39,1,0,0,1876.4
14,34,3,0,2,64,67,-3,0,1,988.55
14,35,2,0,2,40,42,-2,0,1,1104.2
14,36,1,0,2,14,15,-1,0,1,2998.7
14,37,2,0,2,37,41,-4,0,1,848.98
14,38,1,0,2,18,14,4,0,0,1553.7
14,39,3,0,1,65,63,2,0,1,1143
14,40,1,0,2,15,17,-2,0,1,2027.1
14,41,1,0,2,15,17,-2,0,1,1605.3
14,42,3,0,2,64,62,2,0,0,1656.3
14,43,1,0,2,19,15,4,0,0,1536.9
14,44,3,0,1,64,60,4,0,1,1574.5
14,45,3,0,2,64,66,-2,0,1,1306.2
14,46,2,1,2,42,41,1,0,0,2129.4
14,47,2,1,1,41,40,1,0,1,2406.3
14,48,2,1,1,38,37,1,0,1,1769.2
14,49,2,1,1,43,39,4,0,1,965.54
14,50,2,1,1,40,41,-1,0,0,1752.4
14,51,2,1,1,41,40,1,0,1,1590.3
14,52,2,1,2,36,38,-2,0,1,1929.2
14,53,2,1,2,40,38,2,0,0,1447.2
14,54,2,1,2,41,39,2,0,0,1096
14,55,2,1,1,41,42,-1,0,0,982.24
14,56,2,1,1,40,37,3,0,1,1089.4
14,57,2,1,1,42,38,4,0,1,1121.1
14,58,2,1,1,42,39,3,0,1,1015
14,59,2,1,1,43,41,2,0,1,841.53
14,60,2,1,1,39,37,2,0,1,1619.1
14,61,2,0,1,38,35,3,0,1,1696.4
14,62,1,0,2,11,13,-2,0,1,2022.8
14,63,2,0,2,40,41,-1,0,1,1376.9
14,64,1,0,2,14,15,-1,0,1,1500.7
14,65,3,0,1,67,64,3,0,1,1075.7
14,66,3,0,1,60,59,1,0,1,1859.7
14,67,2,0,2,35,40,-5,0,1,2212.1
14,68,1,0,1,19,16,3,0,1,1157.7
14,69,3,0,1,63,60,3,0,1,1754.9
14,70,2,0,1,38,39,-1,0,0,1919.5
14,71,1,0,1,17,18,-1,0,0,2950.2
14,73,1,0,1,19,14,5,0,1,1542.1
14,74,3,0,2,59,64,-5,0,1,1659.2
14,75,3,0,2,59,62,-3,0,1,1531.9
14,76,2,1,2,39,42,-3,0,1,1565
14,77,2,1,2,37,39,-2,0,1,1816.9
14,78,2,1,1,39,36,3,0,1,1050.5
14,79,2,1,1,42,40,2,0,1,1243.8
14,80,2,1,2,36,41,-5,0,1,1453
14,81,2,1,2,37,40,-3,0,1,1157.5
14,82,2,1,2,42,41,1,0,0,970.54
14,83,2,1,1,40,37,3,0,1,1438.3
14,84,2,1,2,37,42,-5,0,1,1127.6
14,85,2,1,1,40,38,2,0,1,1125.9
14,86,2,1,1,37,40,-3,0,0,1468
14,87,2,1,1,40,37,3,0,1,1363.6
14,88,2,1,2,39,43,-4,0,1,1559.8
14,89,2,1,2,42,39,3,0,0,2308.8
14,90,2,1,1,43,39,4,0,1,1099.7
14,91,3,0,2,63,65,-2,0,1,918.68
14,92,1,0,1,15,12,3,0,1,2293.8
14,93,1,0,2,12,14,-2,0,1,3091.2
14,94,2,0,1,35,36,-1,0,0,978.86
14,95,3,0,1,64,63,1,0,1,1630.3
14,96,1,0,2,16,17,-1,0,1,1375.5
14,97,1,0,1,15,14,1,0,1,1571.6
14,98,2,0,1,36,38,-2,0,0,1495.5
14,99,2,0,2,41,39,2,0,0,1358.2
14,100,3,0,2,61,65,-4,0,1,1931.2
14,101,1,0,2,13,15,-2,0,1,1560.8
14,102,3,0,2,62,66,-4,0,1,2101.2
14,103,3,0,2,59,64,-5,0,1,1116.2
14,104,2,0,2,37,36,1,0,0,2569.8
14,105,2,0,1,43,40,3,0,1,1870
14,106,3,1,2,63,67,-4,0,1,1241.8
14,107,3,1,2,63,64,-1,0,1,1314
14,108,3,1,1,66,63,3,0,1,792.39
14,109,3,1,2,59,62,-3,0,1,867.51
14,110,3,1,1,63,60,3,0,1,795.97
14,111,3,1,1,64,62,2,0,1,1278.2
14,112,3,1,1,62,61,1,0,1,1262.1
14,113,3,1,1,65,63,2,0,1,1485.8
14,114,3,1,2,61,64,-3,0,1,1101.3
14,115,3,1,2,61,63,-2,0,1,1251.9
14,116,3,1,2,63,67,-4,0,1,1012.7
14,117,3,1,1,64,61,3,0,1,1303.2
14,118,3,1,1,64,62,2,0,1,1101.4
14,119,3,1,2,63,60,3,0,0,2804.2
14,120,3,1,1,61,64,-3,0,0,943.26
14,121,2,0,1,37,39,-2,0,0,1230.4
14,122,1,0,1,14,15,-1,0,0,2679
14,123,3,0,1,65,60,5,0,1,1454.6
14,124,3,0,1,61,60,1,0,1,1311.4
14,125,1,0,2,14,17,-3,0,1,2142.3
14,126,2,0,2,35,40,-5,0,1,1667.3
14,128,3,0,1,66,62,4,0,1,960.08
14,129,2,0,2,35,37,-2,0,1,2269.1
14,130,2,0,2,38,42,-4,0,1,2189
14,131,3,0,1,60,62,-2,0,0,1760.4
14,132,1,0,2,14,18,-4,0,1,3253.1
14,133,3,0,1,66,62,4,0,1,1477.5
14,134,1,0,1,17,12,5,0,1,2133.6
14,135,2,0,2,39,41,-2,0,1,2691.1
14,136,1,1,1,18,15,3,0,1,1591.6
14,137,1,1,1,16,13,3,0,1,1778.7
14,138,1,1,1,17,16,1,0,1,3126
14,139,1,1,1,15,13,2,0,1,1644.3
14,140,1,1,1,16,14,2,0,1,3173.6
14,141,1,1,1,16,13,3,0,1,2209.8
14,142,1,1,2,14,18,-4,0,1,1532.6
14,143,1,1,1,19,15,4,0,1,1641.8
14,144,1,1,1,15,11,4,0,1,1683
14,145,1,1,2,15,19,-4,0,1,1034.2
14,146,1,1,2,12,17,-5,0,1,1203.9
14,147,1,1,2,15,18,-3,0,1,1166.7
14,148,1,1,1,15,12,3,0,1,1674.6
14,149,1,1,1,17,15,2,0,1,1491.1
14,150,1,1,1,14,13,1,0,1,2106.1
14,151,1,0,1,12,11,1,0,1,1707
14,152,2,0,2,37,39,-2,0,1,1192.8
14,153,3,0,1,67,63,4,0,1,1868
14,154,2,0,1,40,37,3,0,1,2651.8
14,155,2,0,2,35,39,-4,0,1,796.82
14,156,1,0,1,16,19,-3,0,0,847.75
14,157,3,0,2,59,63,-4,0,1,1744.7
14,158,3,0,1,62,63,-1,0,0,893.36
14,159,1,0,2,11,14,-3,0,1,1452.9
14,160,1,0,2,13,12,1,0,0,2525.9
14,161,2,0,2,39,41,-2,0,1,1395.2
14,162,3,0,2,61,63,-2,0,1,1198.6
14,163,2,0,1,38,39,-1,0,0,2585.5
14,164,3,0,2,61,63,-2,0,1,1436.9
14,165,1,0,2,16,18,-2,0,1,2021.8
14,166,1,1,2,16,13,3,0,0,1160.5
14,167,1,1,1,13,15,-2,0,0,1484.1
14,168,1,1,1,17,15,2,0,1,1908.4
14,169,1,1,2,11,14,-3,0,1,1562.5
14,170,1,1,2,17,18,-1,0,1,1174.7
14,171,1,1,2,13,16,-3,0,1,1274.9
14,172,1,1,2,17,16,1,0,0,1578.8
14,173,1,1,2,11,14,-3,0,1,3261.7
14,174,1,1,1,18,17,1,0,1,2310
14,175,1,1,2,12,16,-4,0,1,1708.7
14,176,1,1,2,13,15,-2,0,1,1579.7
14,177,1,1,2,15,16,-1,0,1,1775
14,178,1,1,2,13,18,-5,0,1,866.65
14,179,1,1,2,18,15,3,0,0,2651.6
14,180,1,1,1,15,12,3,0,1,2851.8
14,181,3,0,2,62,65,-3,0,1,1178.6
14,182,1,0,1,13,15,-2,0,0,1181.4
14,183,3,0,1,65,62,3,0,1,1312.8
14,184,3,0,2,63,62,1,0,0,854.63
14,185,2,0,1,40,36,4,0,1,1687.3
14,186,2,0,2,40,43,-3,0,1,734.78
14,187,2,0,2,39,38,1,0,0,828.42
14,189,3,0,2,62,63,-1,0,1,1705.5
14,190,2,0,1,42,38,4,0,1,1552.1
14,191,2,0,1,39,42,-3,0,0,1653.1
14,192,1,0,1,18,14,4,0,1,1925.8
14,193,1,0,2,11,16,-5,0,1,1820.1
14,194,3,0,2,63,65,-2,0,1,893.7
14,195,1,0,1,17,15,2,0,1,1573.5
14,196,3,1,2,65,66,-1,0,1,1344.1
14,197,3,1,1,66,62,4,0,1,964.82
14,198,3,1,2,59,62,-3,0,1,1024.8
14,199,3,1,1,63,61,2,0,1,1138.9
14,200,3,1,2,63,66,-3,0,1,1104.9
14,201,3,1,2,61,66,-5,0,1,878.82
14,202,3,1,2,64,65,-1,0,1,862.36
14,203,3,1,2,60,64,-4,0,1,974.63
14,204,3,1,2,62,67,-5,0,1,1042.3
14,205,3,1,1,67,63,4,0,1,931.96
14,206,3,1,2,65,63,2,0,0,1721.7
14,207,3,1,2,60,65,-5,0,1,2039.2
14,208,3,1,1,65,64,1,0,1,848.72
14,209,3,1,1,63,59,4,0,1,1073.4
14,210,3,1,1,65,64,1,0,1,1402
14,211,1,0,1,16,13,3,0,1,1478.7
14,212,2,0,2,38,39,-1,0,1,2734.4
14,213,3,0,2,59,61,-2,0,1,2171.7
14,214,1,0,2,11,12,-1,0,1,2359.9
14,215,2,0,1,37,38,-1,0,0,1908.4
14,216,3,0,2,61,63,-2,0,1,883.02
14,217,3,0,2,64,65,-1,0,1,1834.4
14,218,1,0,2,15,17,-2,0,1,3035.8
14,219,2,0,1,41,38,3,0,1,2525.6
14,220,2,0,2,35,40,-5,0,1,811.37
14,221,1,0,2,15,18,-3,0,1,1469.7
14,222,3,0,1,67,62,5,0,1,830.33
14,223,2,0,1,39,36,3,0,1,1463.2
14,224,3,0,2,65,66,-1,0,1,807.47
14,225,1,0,2,11,16,-5,0,1,1194.5
14,226,1,1,1,19,17,2,0,1,3279
14,227,1,1,2,13,16,-3,0,1,1701.4
14,228,1,1,2,16,17,-1,0,1,3052.4
14,229,1,1,2,12,14,-2,0,1,2820.8
14,230,1,1,2,14,19,-5,0,1,1287.1
14,231,1,1,1,19,15,4,0,1,1974.4
14,232,1,1,1,19,16,3,0,1,1594.4
14,233,1,1,1,16,17,-1,0,0,1645.9
14,234,1,1,2,18,16,2,0,0,2982.9
14,235,1,1,2,15,19,-4,0,1,2050.6
14,236,1,1,2,18,15,3,0,0,2131.1
14,237,1,1,1,18,14,4,0,1,1112.7
14,238,1,1,2,13,16,-3,0,1,2790.8
14,239,1,1,2,18,17,1,0,0,1393.6
14,240,1,1,1,16,14,2,0,1,1301.2
14,241,3,0,2,63,65,-2,0,1,1161.7
14,242,1,0,1,16,12,4,0,1,1085.9
14,243,1,0,2,11,16,-5,0,1,2549.5
14,244,1,0,1,14,11,3,0,1,1810.2
14,245,3,0,2,59,64,-5,0,1,1028.8
14,246,3,0,1,64,61,3,0,1,1109.7
14,247,1,0,2,13,17,-4,0,1,1509.2
14,248,2,0,1,43,39,4,0,1,1363.5
14,249,3,0,2,62,63,-1,0,1,1783.4
14,250,2,0,1,37,39,-2,0,0,2771.1
14,251,2,0,2,35,39,-4,0,1,1143.1
14,252,3,0,2,59,63,-4,0,1,2092.9
14,253,2,0,2,36,38,-2,0,1,2243.8
14,254,2,0,2,38,41,-3,0,1,1060.9
14,255,1,0,1,16,15,1,0,1,2629.3
14,256,3,1,1,66,63,3,0,1,898.32
14,257,3,1,2,62,66,-4,0,1,752.17
14,258,3,1,2,60,62,-2,0,1,1301.2
14,259,3,1,1,67,65,2,0,1,780.03
14,260,3,1,1,66,65,1,0,1,735.08
14,261,3,1,2,64,61,3,0,0,988.61
14,262,3,1,2,61,64,-3,0,1,1008
14,263,3,1,1,67,63,4,0,1,938.71
14,264,3,1,1,66,65,1,0,1,2111.7
14,265,3,1,1,66,63,3,0,1,1765.9
14,266,3,1,1,67,64,3,0,1,954.19
14,267,3,1,1,66,64,2,0,1,1318.6
14,268,3,1,2,61,63,-2,0,1,836.57
14,269,3,1,2,64,65,-1,0,1,798.27
14,270,3,1,1,64,61,3,0,1,1081
15,1,3,0,2,65,63,2,0,0,1909.2
15,2,2,0,1,40,36,4,0,1,962.46
15,3,2,0,1,43,40,3,0,1,838.64
15,4,2,0,1,41,38,3,0,1,1304.4
15,5,1,0,2,14,18,-4,0,1,1646.1
15,6,3,0,1,62,63,-1,0,0,1840.5
15,7,1,0,1,15,12,3,0,1,2266.6
15,8,3,0,1,62,63,-1,0,0,1899.2
15,9,1,0,2,13,17,-4,0,1,1793.6
15,10,3,0,1,67,64,3,0,1,1348
15,11,2,0,2,38,41,-3,0,1,1153.2
15,12,1,0,2,16,14,2,0,0,2229.7
15,13,2,0,1,39,36,3,0,1,1679.1
15,14,3,0,1,67,62,5,0,1,2038.8
15,15,1,0,2,11,15,-4,0,1,1120.3
15,16,2,1,1,40,37,3,0,1,1408.2
15,17,2,1,1,40,38,2,0,1,850.93
15,18,2,1,1,38,37,1,0,1,2235.7
15,19,2,1,1,40,37,3,0,1,1173.4
15,20,2,1,1,41,40,1,0,1,1705.1
15,21,2,1,1,42,39,3,0,1,1368.3
15,22,2,1,2,42,40,2,0,0,1627.8
15,23,2,1,1,37,39,-2,0,0,3206.1
15,24,2,1,2,40,41,-1,0,1,1881
15,25,2,1,2,39,43,-4,0,1,1368.7
15,26,2,1,2,37,39,-2,0,1,1844.3
15,27,2,1,2,37,40,-3,0,1,1894.1
15,28,2,1,2,41,40,1,0,0,2333.7
15,29,2,1,2,36,41,-5,0,1,1402.8
15,30,2,1,2,37,40,-3,0,1,2526
15,31,3,0,2,59,63,-4,0,1,3425.4
15,32,2,0,2,35,36,-1,0,1,2619.2
15,33,1,0,1,15,18,-3,0,0,1228.9
15,34,2,0,2,35,40,-5,0,1,1886.8
15,35,3,0,2,60,62,-2,0,1,2429.7
15,36,2,0,2,36,38,-2,0,1,943.46
15,37,3,0,2,61,63,-2,0,1,2036.6
15,38,3,0,2,62,65,-3,0,1,982.65
15,39,2,0,2,38,39,-1,0,1,954.23
15,40,1,0,1,12,11,1,0,1,2406.5
15,42,2,0,2,37,38,-1,0,1,2068.2
15,43,1,0,1,13,12,1,0,1,3659.9
15,44,3,0,2,62,66,-4,0,1,1804.9
15,45,1,0,2,17,15,2,0,0,1399.7
15,46,1,1,2,15,12,3,0,0,2574.2
15,47,1,1,1,11,14,-3,0,0,3226.6
15,48,1,1,1,13,16,-3,0,0,2828.4
15,49,1,1,2,14,19,-5,0,1,1462.1
15,51,1,1,2,12,16,-4,0,1,1491.3
15,52,1,1,1,16,14,2,0,1,2618.9
15,53,1,1,2,14,18,-4,0,1,1397
15,54,1,1,2,12,17,-5,0,1,1223.7
15,55,1,1,1,19,15,4,0,1,1746.1
15,56,1,1,1,19,17,2,0,1,1198.5
15,57,1,1,2,18,17,1,0,0,2601.6
15,58,1,1,2,15,19,-4,0,1,2460.5
15,59,1,1,1,13,15,-2,0,0,2701.5
15,60,1,1,1,19,16,3,0,1,1076.4
15,62,3,0,2,61,63,-2,0,1,3213.7
15,63,1,0,1,18,14,4,0,1,1103.7
15,64,2,0,1,36,35,1,0,1,2222.6
15,65,3,0,1,64,63,1,0,1,1992.7
15,66,3,0,1,65,60,5,0,1,2220.2
15,67,2,0,2,37,41,-4,0,1,2606.1
15,69,3,0,1,66,62,4,0,1,2196.8
15,70,1,0,1,13,14,-1,0,0,2351.4
15,71,2,0,2,41,42,-1,0,1,1228
15,72,2,0,1,39,41,-2,0,0,798.21
15,73,1,0,2,15,17,-2,0,1,2713.3
15,74,2,0,2,39,38,1,0,0,1711.3
15,75,3,0,2,61,63,-2,0,1,3710
15,76,1,1,2,18,15,3,0,0,1538.5
15,77,1,1,2,16,17,-1,0,1,2495.7
15,78,1,1,1,17,15,2,0,1,1094.5
15,79,1,1,1,16,17,-1,0,0,3430.1
15,80,1,1,1,17,16,1,0,1,2287.6
15,81,1,1,1,16,14,2,0,1,2047.3
15,82,1,1,1,18,15,3,0,1,1847.8
15,83,1,1,1,17,15,2,0,1,1528.4
15,84,1,1,2,15,18,-3,0,1,2510.2
15,85,1,1,1,18,15,3,0,1,1708.8
15,86,1,1,1,15,12,3,0,1,2811.4
15,87,1,1,2,13,18,-5,0,1,1438.5
15,88,1,1,2,13,16,-3,0,1,3239.8
15,89,1,1,2,12,14,-2,0,1,3353.1
15,91,2,0,1,43,38,5,0,1,778.11
15,92,3,0,2,65,62,3,0,0,925.68
15,93,2,0,2,40,43,-3,0,1,1147.6
15,94,2,0,1,43,39,4,0,1,736.44
15,95,2,0,1,41,39,2,0,1,949.68
15,96,2,0,2,35,39,-4,0,1,1019.2
15,97,3,0,2,59,64,-5,0,1,956.75
15,98,3,0,2,59,64,-5,0,1,1441.3
15,99,1,0,1,16,12,4,0,1,2010.7
15,100,1,0,2,12,14,-2,0,1,2693.6
15,101,3,0,2,59,64,-5,0,1,1173.3
15,102,1,0,2,11,16,-5,0,1,2257.5
15,103,1,0,1,19,16,3,0,1,922.26
15,104,3,0,2,63,65,-2,0,1,1368.3
15,105,1,0,2,15,17,-2,0,1,1292.5
15,106,3,1,1,67,65,2,0,1,768.14
15,107,3,1,2,60,65,-5,0,1,1236
15,108,3,1,2,63,66,-3,0,1,1573.6
15,109,3,1,2,60,62,-2,0,1,1754.2
15,110,3,1,1,64,61,3,0,1,1334.6
15,111,3,1,2,66,63,3,0,0,1284.2
15,112,3,1,2,60,64,-4,0,1,1139.2
15,113,3,1,1,67,63,4,0,1,2281.2
15,114,3,1,1,66,65,1,0,1,936.44
15,115,3,1,1,67,63,4,0,1,1038.1
15,116,3,1,1,64,62,2,0,1,1567
15,117,3,1,2,61,64,-3,0,1,2739
15,118,3,1,1,64,61,3,0,1,1352.9
15,119,3,1,2,62,66,-4,0,1,1045.8
15,120,3,1,2,61,63,-2,0,1,2902.1
15,121,2,0,1,40,39,1,0,1,2366.8
15,122,3,0,1,66,62,4,0,1,1211
15,123,1,0,1,19,14,5,0,1,2116.7
15,124,1,0,2,12,14,-2,0,1,2595.4
15,125,2,0,2,35,40,-5,0,1,1246.4
15,126,1,0,1,18,14,4,0,1,1535.8
15,127,2,0,2,37,39,-2,0,1,1916.9
15,128,3,0,2,64,61,3,0,0,2723.3
15,129,1,0,1,14,11,3,0,1,1497.5
15,130,2,0,2,39,41,-2,0,1,1536
15,131,3,0,2,63,65,-2,0,1,2829.5
15,132,3,0,1,59,60,-1,0,0,3254.9
15,133,2,0,1,38,39,-1,0,0,2431.8
15,134,3,0,2,59,61,-2,0,1,1185.5
15,135,1,0,2,13,15,-2,0,1,2924.6
15,136,2,1,2,38,43,-5,0,1,1154.9
15,137,2,1,2,36,40,-4,0,1,1455.6
15,138,2,1,1,40,41,-1,0,0,2072.5
15,139,2,1,1,42,38,4,0,1,864.4
15,140,2,1,1,42,39,3,0,1,1521.4
15,141,2,1,2,39,43,-4,0,1,998.75
15,142,2,1,1,39,37,2,0,1,993.18
15,143,2,1,1,43,41,2,0,1,884.66
15,144,2,1,2,37,42,-5,0,1,1100.5
15,145,2,1,1,42,39,3,0,1,1019.4
15,146,2,1,1,39,35,4,0,1,909.04
15,147,2,1,1,40,37,3,0,1,1356.6
15,148,2,1,1,36,38,-2,0,0,1680.7
15,149,2,1,1,43,39,4,0,1,752.23
15,150,2,1,2,42,41,1,0,0,876.79
15,151,3,0,1,64,62,2,0,1,1680.3
15,152,3,0,2,64,67,-3,0,1,1015.3
15,153,2,0,1,37,39,-2,0,0,1201
15,154,1,0,2,11,15,-4,0,1,1452.5
15,155,2,0,2,39,42,-3,0,1,1140.7
15,156,2,0,1,40,41,-1,0,0,1322.5
15,157,1,0,1,17,12,5,0,1,1080.6
15,158,3,0,2,63,62,1,0,0,1240
15,159,2,0,2,39,41,-2,0,1,2257.4
15,160,1,0,2,13,15,-2,0,1,1298.1
15,161,3,0,1,61,65,-4,0,0,2185
15,162,3,0,2,61,62,-1,0,1,2884.2
15,163,2,0,2,35,38,-3,0,1,2763.7
15,164,1,0,2,13,15,-2,0,1,1271.8
15,165,1,0,2,11,14,-3,0,1,2135.9
15,166,3,1,1,65,66,-1,0,0,1389.4
15,167,3,1,2,59,62,-3,0,1,1296.1
15,168,3,1,2,62,61,1,0,0,1799
15,169,3,1,1,65,63,2,0,1,1785.9
15,170,3,1,2,61,64,-3,0,1,2412.9
15,171,3,1,2,63,67,-4,0,1,967.97
15,172,3,1,2,63,64,-1,0,1,2003.8
15,173,3,1,1,65,64,1,0,1,1486.1
15,174,3,1,2,61,63,-2,0,1,1869.8
15,175,3,1,2,62,67,-5,0,1,2685.8
15,176,3,1,2,63,67,-4,0,1,1621.4
15,177,3,1,2,67,64,3,0,0,3311.4
15,178,3,1,2,66,65,1,0,0,1085.6
15,179,3,1,1,64,62,2,0,1,1317.7
15,180,3,1,2,61,66,-5,0,1,2242.8
15,181,2,0,1,41,36,5,0,1,1296.2
15,182,3,0,2,65,66,-1,0,1,894.87
15,183,1,0,1,14,15,-1,0,0,1950
15,184,1,0,2,15,17,-2,0,1,2338
15,185,2,0,2,36,38,-2,0,1,1223.9
15,186,1,0,2,16,17,-1,0,1,1497.6
15,187,3,0,1,61,60,1,0,1,2400.6
15,188,2,0,2,35,39,-4,0,1,1843.1
15,189,1,0,2,19,15,4,0,0,1876.9
15,190,3,0,1,62,59,3,0,1,1981
15,191,3,0,2,63,65,-2,0,1,1264.2
15,192,2,0,2,40,42,-2,0,1,1800.8
15,193,3,0,2,59,62,-3,0,1,1387.4
15,194,1,0,1,16,15,1,0,1,1398.9
15,195,2,0,2,35,40,-5,0,1,1929.5
15,196,3,1,2,64,65,-1,0,1,963.1
15,197,3,1,1,66,63,3,0,1,862.89
15,198,3,1,1,63,59,4,0,1,1510.8
15,199,3,1,1,63,60,3,0,1,1285.3
15,200,3,1,2,61,64,-3,0,1,1941
15,201,3,1,1,66,63,3,0,1,1650
15,202,3,1,1,66,64,2,0,1,3171.1
15,203,3,1,1,64,61,3,0,1,1543.1
15,204,3,1,2,65,64,1,0,0,1036.9
15,205,3,1,1,59,62,-3,0,0,1502.4
15,206,3,1,1,65,63,2,0,1,1325.1
15,207,3,1,1,66,62,4,0,1,1331.3
15,208,3,1,2,63,60,3,0,0,3016.6
15,209,3,1,2,64,65,-1,0,1,1738.7
15,210,3,1,1,63,61,2,0,1,1143.7
15,211,2,0,1,42,38,4,0,1,979.04
15,212,1,0,2,15,14,1,0,0,1462.2
15,213,1,0,2,17,18,-1,0,1,2894.2
15,214,2,0,2,42,38,4,0,0,1101.8
15,215,3,0,2,59,63,-4,0,1,1924.4
15,216,1,0,2,11,16,-5,0,1,1114.6
15,217,1,0,2,11,16,-5,0,1,2120.8
15,218,2,0,1,37,36,1,0,1,2183.2
15,219,2,0,1,40,37,3,0,1,850.46
15,220,3,0,1,67,63,4,0,1,1138.8
15,221,1,0,2,17,14,3,0,0,2400.9
15,222,3,0,2,62,63,-1,0,1,2099.1
15,223,3,0,2,60,59,1,0,0,1258.1
15,224,3,0,2,64,66,-2,0,1,1074.7
15,225,2,0,2,38,42,-4,0,1,1307.1
15,226,1,1,1,19,15,4,0,1,1053.6
15,228,1,1,2,16,13,3,0,0,1664.4
15,229,1,1,1,15,11,4,0,1,1520.3
15,230,1,1,1,15,19,-4,0,0,2814.3
15,231,1,1,1,18,16,2,0,1,1768.7
15,232,1,1,1,18,14,4,0,1,925.21
15,233,1,1,2,14,13,1,0,0,2259.6
15,234,1,1,2,13,15,-2,0,1,1868
15,235,1,1,2,17,16,1,0,0,3115.9
15,236,1,1,2,11,14,-3,0,1,2818.3
15,237,1,1,1,16,13,3,0,1,1500.5
15,238,1,1,1,15,13,2,0,1,1899.3
15,239,1,1,2,13,16,-3,0,1,1777.8
15,240,1,1,1,18,17,1,0,1,798.01
15,241,1,0,2,14,15,-1,0,1,2549.3
15,242,1,0,1,16,13,3,0,1,1001.6
15,243,3,0,2,64,65,-1,0,1,2012.8
15,244,3,0,2,63,66,-3,0,1,966.85
15,245,1,0,2,16,19,-3,0,1,1170.7
15,246,2,0,2,40,38,2,0,0,1230.6
15,247,1,0,2,11,13,-2,0,1,1760.3
15,248,3,0,1,64,60,4,0,1,981.29
15,249,2,0,1,38,39,-1,0,0,856.47
15,250,2,0,2,37,39,-2,0,1,1265.5
15,251,2,0,1,38,35,3,0,1,1569.1
15,252,3,0,2,60,62,-2,0,1,1157.7
15,253,2,0,2,35,37,-2,0,1,978.11
15,254,1,0,2,11,12,-1,0,1,1190.1
15,255,3,0,1,63,60,3,0,1,1905.4
15,256,2,1,2,40,38,2,0,0,893.53
15,257,2,1,2,35,38,-3,0,1,1556.6
15,258,2,1,2,35,38,-3,0,1,1233.4
15,259,2,1,2,39,42,-3,0,1,1011.2
15,260,2,1,1,41,39,2,0,1,1525.4
15,261,2,1,2,39,40,-1,0,1,1323.2
15,262,2,1,2,41,42,-1,0,1,1929.2
15,263,2,1,1,43,39,4,0,1,1414.7
15,264,2,1,2,37,40,-3,0,1,1048.7
15,265,2,1,1,41,39,2,0,1,1553.5
15,266,2,1,1,43,40,3,0,1,1406.4
15,267,2,1,1,42,41,1,0,1,1888.9
15,268,2,1,1,39,36,3,0,1,1312.4
15,269,2,1,1,39,36,3,0,1,1926.2
15,270,2,1,2,38,42,-4,0,1,1196.2
17,1,2,0,1,37,36,1,0,1,1447.8
17,2,3,0,1,62,63,-1,0,0,1197.2
17,4,2,0,1,39,41,-2,0,0,522.47
17,5,3,0,1,61,62,-1,0,0,1663.9
17,6,1,0,1,17,12,5,0,1,1056.4
17,7,3,0,1,66,62,4,0,1,1232.6
17,8,1,0,1,15,14,1,0,1,1026
17,9,2,0,1,38,42,-4,0,0,708.51
17,10,2,0,1,36,38,-2,0,0,602.87
17,11,1,0,1,13,17,-4,0,0,718.02
17,12,1,0,1,11,15,-4,0,0,1067.2
17,13,3,0,1,60,62,-2,0,0,1131.9
17,14,3,0,1,62,63,-1,0,0,1080.6
17,15,1,0,1,14,15,-1,0,0,744.69
17,16,3,1,2,65,66,-1,0,1,2020.4
17,17,3,1,1,63,60,3,0,1,1686
17,18,3,1,1,63,61,2,0,1,1525
17,19,3,1,2,66,65,1,0,0,1227.5
17,20,3,1,1,66,65,1,0,1,1308.4
17,21,3,1,2,63,64,-1,0,1,2307
17,22,3,1,1,64,61,3,0,1,1505.9
17,23,3,1,2,60,64,-4,0,1,1120.8
17,24,3,1,2,60,65,-5,0,1,774.73
17,25,3,1,1,65,63,2,0,1,1467
17,26,3,1,1,66,63,3,0,1,923.01
17,27,3,1,2,64,62,2,0,0,1032.5
17,28,3,1,1,66,63,3,0,1,1201.6
17,29,3,1,1,65,64,1,0,1,1572.2
17,30,3,1,2,64,65,-1,0,1,1200.9
17,32,2,0,2,35,38,-3,0,1,1033.8
17,33,3,0,2,63,66,-3,0,1,1059.4
17,34,3,0,2,62,66,-4,0,1,1020.7
17,35,3,0,2,61,63,-2,0,1,1862.4
17,36,2,0,2,37,39,-2,0,1,1621.9
17,37,2,0,2,40,42,-2,0,1,1792.7
17,42,1,0,2,11,15,-4,0,1,1232.2
17,43,3,0,1,65,60,5,0,1,1282.2
17,44,3,0,2,59,64,-5,0,1,865.07
17,47,1,1,1,17,16,1,0,1,1653.8
17,48,1,1,1,17,16,1,0,1,1726.8
17,49,1,1,2,12,16,-4,0,1,1396.5
17,50,1,1,1,16,13,3,0,1,1423
17,52,1,1,2,16,17,-1,0,1,1010.2
17,53,1,1,2,11,14,-3,0,1,1788.9
17,54,1,1,2,12,17,-5,0,1,1455.8
17,55,1,1,1,16,14,2,0,1,2208.7
17,56,1,1,2,14,18,-4,0,1,1283.9
17,57,1,1,2,15,18,-3,0,1,931.17
17,58,1,1,1,15,11,4,0,1,952.21
17,59,1,1,2,16,14,2,0,0,812.79
17,60,1,1,1,18,15,3,0,1,991.9
17,61,3,0,1,62,59,3,0,1,1345.1
17,63,1,0,2,14,15,-1,0,1,1754.4
17,64,3,0,1,67,64,3,0,1,695.46
17,65,3,0,1,61,60,1,0,1,1421.9
17,67,2,0,1,40,36,4,0,1,810.38
17,68,3,0,2,61,65,-4,0,1,900.82
17,69,3,0,1,63,60,3,0,1,819.28
17,70,2,0,2,38,41,-3,0,1,957.54
17,71,1,0,1,12,14,-2,0,0,1594.4
17,72,1,0,2,11,16,-5,0,1,788.64
17,73,2,0,1,40,39,1,0,1,1528.1
17,74,2,0,2,37,41,-4,0,1,2142.1
17,75,1,0,1,12,11,1,0,1,1938.7
17,76,3,1,2,59,62,-3,0,1,1152.5
17,77,3,1,2,63,67,-4,0,1,772.85
17,78,3,1,2,64,65,-1,0,1,2105.5
17,79,3,1,2,64,62,2,0,0,2287.8
17,80,3,1,2,59,62,-3,0,1,1007.1
17,81,3,1,2,61,63,-2,0,1,834.11
17,82,3,1,2,61,64,-3,0,1,859.3
17,83,3,1,1,64,61,3,0,1,692.25
17,84,3,1,1,67,63,4,0,1,603.1
17,85,3,1,2,61,64,-3,0,1,806.08
17,86,3,1,1,63,60,3,0,1,704.94
17,87,3,1,1,66,62,4,0,1,623.55
17,88,3,1,1,67,64,3,0,1,697.63
17,89,3,1,1,63,59,4,0,1,648.16
17,90,3,1,2,63,67,-4,0,1,737.01
17,91,2,0,2,39,41,-2,0,1,1362.8
17,92,3,0,2,59,62,-3,0,1,710.62
17,93,2,0,2,35,36,-1,0,1,1053.3
17,94,3,0,2,59,64,-5,0,1,925.35
17,95,1,0,2,14,15,-1,0,1,1467.4
17,96,2,0,1,35,40,-5,0,0,955.94
17,97,3,0,2,62,65,-3,0,1,656.2
17,98,2,0,1,39,38,1,0,1,1449.4
17,99,1,0,2,16,14,2,0,0,2265.7
17,100,3,0,1,62,63,-1,0,0,969.98
17,101,1,0,2,14,18,-4,0,1,1909.8
17,102,3,0,2,65,66,-1,0,1,964.18
17,103,2,0,2,35,40,-5,0,1,1680.7
17,104,1,0,1,12,14,-2,0,0,2119.9
17,105,1,0,1,15,17,-2,0,0,1126.3
17,106,3,1,2,61,66,-5,0,1,1096.1
17,107,3,1,2,63,66,-3,0,1,718.1
17,108,3,1,2,61,64,-3,0,1,723.99
17,109,3,1,1,65,63,2,0,1,1626.1
17,110,3,1,1,62,61,1,0,1,1476.6
17,111,3,1,2,65,64,1,0,0,891.39
17,112,3,1,1,67,63,4,0,1,970.91
17,113,3,1,2,61,63,-2,0,1,2343.1
17,114,3,1,2,62,66,-4,0,1,828.46
17,115,3,1,2,66,64,2,0,0,1070.2
17,116,3,1,2,62,67,-5,0,1,837.76
17,117,3,1,2,60,62,-2,0,1,815.47
17,118,3,1,1,66,63,3,0,1,961.56
17,119,3,1,1,67,65,2,0,1,837.11
17,120,3,1,1,64,61,3,0,1,1070.5
17,121,1,0,2,16,18,-2,0,1,960.62
17,122,2,0,1,40,37,3,0,1,1588.8
17,123,1,0,1,14,11,3,0,1,1079.8
17,124,3,0,2,61,63,-2,0,1,1376
17,125,2,0,2,43,38,5,0,0,1027.8
17,126,1,0,1,11,13,-2,0,0,1428.7
17,127,3,0,1,64,62,2,0,1,1558.2
17,128,2,0,1,39,36,3,0,1,1402.8
17,129,3,0,2,63,65,-2,0,1,901.47
17,130,1,0,2,13,15,-2,0,1,2299.8
17,131,2,0,2,41,42,-1,0,1,1090.3
17,133,3,0,2,59,61,-2,0,1,781.69
17,135,1,0,2,17,15,2,0,0,1883.4
17,137,2,1,2,39,43,-4,0,1,658.7
17,138,2,1,1,43,39,4,0,1,946.81
17,139,2,1,1,35,38,-3,0,0,1247.7
17,140,2,1,1,41,42,-1,0,0,1432.3
17,141,2,1,2,37,39,-2,0,1,1041.9
17,142,2,1,1,43,41,2,0,1,571.25
17,143,2,1,2,38,42,-4,0,1,567.58
17,144,2,1,2,35,38,-3,0,1,1395.4
17,145,2,1,1,40,37,3,0,1,869.91
17,146,2,1,1,39,36,3,0,1,862.13
17,147,2,1,2,40,41,-1,0,1,925.87
17,148,2,1,1,42,39,3,0,1,1060.2
17,149,2,1,1,38,37,1,0,1,796.73
17,150,2,1,2,37,40,-3,0,1,727.48
17,152,3,0,2,63,65,-2,0,1,1456
17,153,2,0,1,43,39,4,0,1,1033.3
17,154,3,0,1,67,62,5,0,1,785.83
17,155,2,0,1,38,39,-1,0,0,1981.2
17,156,2,0,2,35,39,-4,0,1,1536.6
17,157,3,0,1,64,60,4,0,1,725.86
17,158,1,0,2,11,16,-5,0,1,1227.9
17,159,3,0,2,61,63,-2,0,1,790.44
17,160,3,0,2,59,60,-1,0,1,1169.1
17,161,1,0,1,15,17,-2,0,0,1285.2
17,162,2,0,1,36,38,-2,0,0,1236.9
17,163,2,0,2,35,37,-2,0,1,1117.7
17,164,1,0,1,15,12,3,0,1,1523.9
17,165,1,0,1,16,19,-3,0,0,682.15
17,166,1,1,1,19,17,2,0,1,1022.8
17,167,1,1,2,13,16,-3,0,1,904.02
17,168,1,1,1,19,15,4,0,1,566.16
17,169,1,1,2,12,14,-2,0,1,978.15
17,170,1,1,2,14,19,-5,0,1,861.66
17,171,1,1,1,15,16,-1,0,0,549.74
17,172,1,1,2,18,15,3,0,0,786.36
17,173,1,1,2,17,15,2,0,0,1302
17,174,1,1,2,15,19,-4,0,1,1196.2
17,175,1,1,1,15,19,-4,0,0,1390.8
17,176,1,1,1,15,13,2,0,1,762.4
17,177,1,1,1,14,13,1,0,1,974.84
17,178,1,1,1,18,17,1,0,1,857.68
17,179,1,1,2,17,15,2,0,0,1402.8
17,180,1,1,2,13,16,-3,0,1,1149.1
17,181,2,0,1,39,42,-3,0,0,1488
17,182,3,0,2,63,62,1,0,0,671.98
17,183,1,0,1,19,16,3,0,1,1055.4
17,184,1,0,1,11,12,-1,0,0,1016
17,185,2,0,2,38,39,-1,0,1,1034.2
17,186,3,0,1,65,62,3,0,1,979.44
17,187,2,0,2,41,39,2,0,0,854.67
17,188,1,0,2,13,14,-1,0,1,895.8
17,189,3,0,2,59,64,-5,0,1,670.35
17,190,2,0,1,40,38,2,0,1,1294.5
17,191,2,0,1,42,38,4,0,1,612.89
17,192,3,0,2,64,67,-3,0,1,686.99
17,193,3,0,2,64,66,-2,0,1,1054.5
17,194,1,0,1,19,15,4,0,1,1454.9
17,195,1,0,1,13,12,1,0,1,1104.2
17,196,1,1,1,19,15,4,0,1,861.9
17,197,1,1,1,16,13,3,0,1,782.02
17,198,1,1,1,19,16,3,0,1,905.71
17,199,1,1,2,13,18,-5,0,1,1031.9
17,200,1,1,2,13,15,-2,0,1,969.34
17,201,1,1,2,18,16,2,0,0,829.63
17,202,1,1,2,15,12,3,0,0,1934.7
17,203,1,1,1,18,15,3,0,1,843.89
17,204,1,1,1,18,14,4,0,1,1205.6
17,205,1,1,1,17,18,-1,0,0,1399.5
17,206,1,1,1,13,15,-2,0,0,1370
17,207,1,1,1,18,17,1,0,1,686.72
17,208,1,1,1,16,17,-1,0,0,1725.1
17,209,1,1,1,15,12,3,0,1,1370.6
17,210,1,1,2,11,14,-3,0,1,2015.4
17,211,2,0,1,37,39,-2,0,0,1059.8
17,212,3,0,1,67,63,4,0,1,1051.9
17,213,1,0,2,13,15,-2,0,1,1236.7
17,214,2,0,2,36,35,1,0,0,1470.2
